Time,Acceleration X,Acceleration Y,Acceleration Z,Angular Velocity X,Angular Velocity Y,Angular Velocity Z,Yaw,Pitch,Roll
0.013,0.07215,0.061522,9.8425,0.018229,0.014771,0.0055631,-90.001,0.35765,0.41998
0.112,0.10583,0.068857,9.8395,0.018209,0.011579,0.0055455,-90.004,0.34313,0.4479
0.211,0.081131,0.058379,9.8395,0.019301,0.015818,0.0066441,19.122,0.34622,0.456
0.31,0.083526,0.045505,9.8708,0.01929,0.013704,0.005566,19.121,0.33931,0.46124
0.408,0.079934,0.061821,9.8516,0.016101,0.015855,0.004485,19.121,0.34795,0.47027
0.507,0.069755,0.059127,9.842,0.016107,0.016906,0.0055572,19.122,0.34434,0.46681
0.606,0.087119,0.059426,9.8601,0.017148,0.012647,0.0055426,19.121,0.34666,0.47242
0.705,0.0961,0.058678,9.8482,0.016095,0.014791,0.0044792,19.119,0.34611,0.46816
0.804,0.089963,0.056882,9.8386,0.019302,0.015831,0.0055777,19.118,0.34148,0.46936
0.902,0.090262,0.074994,9.8474,0.018229,0.014771,0.0055631,19.117,0.34473,0.4702
1.001,0.0964,0.058229,9.8485,0.022474,0.010514,0.0045085,19.116,0.34333,0.4711
1.1,0.062271,0.042661,9.8247,0.01929,0.013704,0.005566,19.116,0.34169,0.46932
1.199,0.080982,0.06736,9.8578,0.01929,0.013704,0.005566,19.116,0.34243,0.46871
1.298,0.090262,0.068857,9.8411,0.020344,0.011572,0.0055631,19.116,0.34364,0.47032
1.397,0.089065,0.061522,9.8241,0.016107,0.016906,0.0055572,19.116,0.34253,0.46795
1.495,0.081431,0.052541,9.8304,0.01185,0.019047,0.0055338,19.117,0.34437,0.47414
1.594,0.093855,0.055684,9.838,0.019304,0.015844,0.0045114,19.116,0.33997,0.47569
1.693,0.09146,0.049098,9.8332,0.013979,0.01799,0.0044792,19.119,0.34094,0.47357
1.792,0.090861,0.060325,9.825,0.019302,0.015831,0.0055777,19.119,0.33876,0.47701
1.891,0.095202,0.056133,9.8374,0.015039,0.016909,0.0055484,19.121,0.33655,0.47787
1.99,0.076192,0.057181,9.841,0.0161,0.015842,0.0055514,19.121,0.33689,0.4784
2.088,0.085323,0.059726,9.8348,0.017161,0.014774,0.0055543,19.12,0.33928,0.47668
2.187,0.073647,0.059127,9.8464,0.013959,0.014785,0.0055279,19.121,0.33656,0.47568
2.286,0.081131,0.053439,9.8377,0.013972,0.016913,0.0055396,19.121,0.33443,0.47237
2.385,0.087718,0.045206,9.8325,0.015034,0.015858,0.0044762,19.121,0.33691,0.47268
2.484,0.094304,0.037272,9.8378,0.013965,0.015849,0.0055338,19.119,0.33643,0.47675
2.582,0.083826,0.062271,9.8262,0.016095,0.014791,0.0044792,19.121,0.33149,0.47421
2.681,0.082928,0.042661,9.8471,0.018241,0.016899,0.0055748,19.122,0.32975,0.47195
2.78,0.085622,0.074695,9.8347,0.020352,0.012649,0.0045026,19.122,0.32559,0.46929
2.879,0.093855,0.043859,9.8425,0.019309,0.016895,0.0055836,19.121,0.33155,0.47028
2.978,0.069156,0.052092,9.8357,0.021417,0.01262,0.0066441,19.12,0.32842,0.46906
3.077,0.077239,0.057181,9.8322,0.018229,0.014771,0.0055631,19.122,0.33708,0.47158
3.175,0.066013,0.066611,9.8405,0.017162,0.014787,0.004488,19.121,0.34018,0.46543
3.274,0.088466,0.049846,9.8287,0.012904,0.016916,0.0055309,19.121,0.33671,0.46448
3.373,0.090412,0.057031,9.8322,0.019291,0.013717,0.0044997,19.121,0.33735,0.46422
3.472,0.090412,0.085023,9.842,0.013959,0.014785,0.0055279,19.12,0.34224,0.46477
3.571,0.079485,0.06736,9.8419,0.017168,0.015838,0.0055601,19.12,0.34305,0.46304
3.669,0.09625,0.074994,9.8509,0.017169,0.015851,0.0044938,19.121,0.34066,0.462
3.768,0.089214,0.050595,9.8362,0.01716,0.014761,0.0066206,19.121,0.34501,0.46026
3.867,0.087269,0.031285,9.8236,0.016094,0.014778,0.0055455,19.12,0.33909,0.46002
3.966,0.087867,0.081431,9.8389,0.017168,0.015838,0.0055601,19.116,0.33897,0.45361
4.065,0.067959,0.077539,9.8375,0.016094,0.014778,0.0055455,19.114,0.33842,0.45732
4.164,0.091609,0.052541,9.8444,0.016099,0.015829,0.0066177,19.114,0.34513,0.45665
4.262,0.081431,0.029339,9.8405,0.017162,0.014787,0.004488,19.113,0.3461,0.45932
4.361,0.086819,0.075293,9.8551,0.015031,0.015832,0.0066089,19.113,0.33767,0.45686
4.46,0.078886,0.059426,9.8326,0.016092,0.014765,0.0066118,19.115,0.3399,0.45867
4.559,0.095202,0.067959,9.8539,0.013965,0.015849,0.0055338,19.115,0.34472,0.45807
4.658,0.064216,0.048349,9.8521,0.011832,0.015869,0.0044499,19.114,0.3489,0.46042
4.756,0.092508,0.046703,9.8257,0.013965,0.015849,0.0055338,19.112,0.3474,0.45925
4.855,0.084275,0.05793,9.836,0.016094,0.014778,0.0055455,19.111,0.34795,0.45534
4.954,0.075593,0.074844,9.8375,0.015031,0.015832,0.0066089,19.11,0.35638,0.45726
5.053,0.084874,0.062869,9.8187,0.017152,0.013684,0.0076811,19.111,0.35378,0.46026
5.152,0.096549,0.060624,9.8413,0.02248,0.011578,0.0045143,19.112,0.35572,0.45693
5.25,0.095202,0.050894,9.8521,0.020356,0.013687,0.0066411,19.112,0.35268,0.45941
5.349,0.074545,0.051643,9.8426,0.012911,0.01798,0.0055367,19.111,0.34805,0.45524
5.448,0.094005,0.05778,9.8453,0.016112,0.017957,0.0066294,19.112,0.34635,0.45696
5.547,0.086969,0.059875,9.8319,0.014492,-0.0060265,-0.55445,19.113,0.34299,0.45829
5.646,0.095651,0.041763,9.8652,-0.027526,0.60689,-0.72101,19.113,0.34656,0.45706
5.744,-1.856,1.5108,10.786,-0.95909,1.7688,-0.47708,19.113,0.35355,0.46318
5.843,0.33904,1.1531,9.8054,-1.1905,-1.4825,-0.012582,19.775,0.39102,0.4452
5.942,1.2993,1.155,10.223,-3.1721,-0.3517,-0.2691,22.433,1.637,2.1321
6.041,1.6523,2.5627,11.514,-3.3936,-0.041231,-0.019695,24.809,2.6254,5.3745
6.14,0.20971,5.6082,8.1509,-2.7619,0.46953,0.076817,26.166,10.925,7.9013
6.238,-0.32617,7.8027,4.8189,-2.2534,0.32971,-0.10531,26.437,21.214,3.3981
6.337,-0.46134,10.286,3.8522,-1.2997,0.48093,-0.62129,27.181,40.832,0.74158
6.436,-0.13741,10.476,1.2625,-0.32182,0.32155,-0.63008,26.576,57.911,2.4083
6.535,-0.6034,10.365,0.83601,-0.19046,0.86786,-0.61535,25.044,73.217,4.9799
6.634,-1.2342,9.4644,-0.77569,3.4774,3.0765,-0.40561,28.657,84.956,3.8008
6.732,-2.3426,11.23,1.8235,2.1738,2.3735,-1.0505,168.56,87.429,-132.42
6.831,-1.685,8.3969,3.0842,1.7955,0.58656,-0.74447,166.16,83.58,-126.31
6.93,-1.901,7.2147,3.7027,2.9298,-0.095794,-0.22802,159.39,81.414,-112.7
7.029,-0.63857,8.8224,5.9425,1.7942,-0.22714,0.79738,89.76,72.235,-32.887
7.128,-1.1394,6.1277,6.1874,1.6099,0.63405,1.2474,83.892,59.569,-19.623
7.226,-2.306,3.605,7.3612,1.5234,0.90806,0.87599,84.887,48.533,-15.469
7.325,-2.1784,3.0656,9.1524,0.046046,2.5079,1.8099,81.516,34.711,-12.285
7.424,-0.017813,0.87179,9.2109,0.039878,0.99718,0.23505,76.385,24.6,-7.7481
7.523,1.2988,-0.42092,9.4997,1.7233,0.040121,-0.15619,69.545,16.212,-1.8563
7.622,7.8765,-0.056283,13.683,2.098,1.2281,0.40366,65.322,8.9743,3.1001
7.72,4.6127,-1.8085,8.7146,2.2265,1.0646,0.16281,58.066,4.4628,14.447
7.819,5.4764,-3.4045,8.1863,0.98705,-0.18071,0.2535,56.71,2.7986,19.48
7.918,4.1988,-5.3321,6.98,1.1476,0.78291,0.24409,57.75,-10.59,22.539
8.017,3.9831,-6.2826,5.9602,1.3043,-4.0797,0.98559,61.443,-22.197,27.698
8.116,3.1045,-5.6594,5.6099,-0.039999,-2.9523,0.76204,64.56,-30.451,31.81
8.214,4.4235,-7.982,6.0275,0.23514,-3.7099,1.6453,68.77,-37.895,36.101
8.313,1.0781,-8.6441,6.4254,0.58105,-5.0986,1.7493,70.936,-42.901,34.469
8.412,-1.0339,-8.9939,7.9528,0.29786,-3.3107,1.1862,77.577,-48.261,38.013
8.511,-4.5016,-7.4912,3.014,1.2509,-1.4122,1.0904,74.846,-53.567,19.209
8.61,-6.3399,-5.9311,-1.3224,-1.4571,2.0889,1.6587,65.137,-54.383,-6.9885
8.708,-5.7245,-5.5894,-3.3411,-2.2321,3.3076,1.5694,48.898,-52.616,-45.7
8.807,-7.6551,-4.6796,-3.7536,-3.6744,3.4065,1.3298,39.066,-45.7,-80.175
8.906,-7.1171,-3.2779,1.2382,-1.8794,1.6733,1.0398,36.667,-39.57,-99.543
9.005,-8.8487,0.27228,4.8543,-1.044,1.6947,1.4222,33.362,-32.384,-107.9
9.104,-7.0707,1.5544,8.9821,-0.50547,3.7272,2.31,44.147,-25.819,-92.885
9.202,-5.4708,3.6573,7.4853,1.7198,2.3115,1.6989,56.453,-16.547,-70.555
9.301,-2.9064,4.9845,9.6328,3.6341,1.3554,0.99289,69.149,-0.085427,-53.742
9.4,-0.22962,4.207,9.113,2.985,2.1076,1.335,75.731,13.661,-44.699
9.499,1.6822,3.4695,9.2012,3.1978,0.24816,1.4194,72.983,23.597,-34.291
9.598,5.8952,-0.19355,8.4297,2.2982,-0.587,1.4682,63.069,32.089,-12.787
9.696,6.4691,-2.6978,9.7687,0.62263,-4.5968,0.72974,52.785,27.173,6.7927
9.795,6.0756,-5.7894,5.7271,-0.63816,-7.1402,0.56042,49.898,10.098,21.012
9.894,3.0128,-7.1834,6.3339,-0.59794,-6.5927,0.93485,51.118,-5.5243,25.198
9.993,1.906,-7.6236,4.859,-0.63933,-4.2428,0.033422,52.029,-23.105,38.326
10.092,-2.439,-6.2926,2.7167,-0.52686,-1.1136,0.27431,56.048,-39.093,41.081
10.19,-6.6179,-5.5626,-1.8955,-2.5538,1.3696,2.0318,56.734,-50.399,33.871
10.289,-6.7096,-6.5652,-6.9113,-3.8862,5.6488,4.1332,52.252,-52.971,2.1214
10.388,-3.5506,-8.4439,-3.9482,-3.3784,3.5174,3.4955,45.145,-51.558,-37.581
10.487,-6.3143,-3.5853,-3.1268,-0.03367,2.5772,2.7822,41.577,-48.688,-75.642
10.586,-5.6838,2.0915,10.441,1.1994,3.8006,2.4823,42.972,-48.228,-100.98
10.684,-3.7472,4.1872,11.905,1.9161,2.7192,2.0643,51.364,-47.342,-104.1
10.783,-1.2756,4.3735,9.8247,2.8804,2.8061,2.1047,71.115,-35.684,-86.535
10.882,3.3774,3.876,11.576,2.9709,0.20683,1.7244,85.239,-8.0817,-58.046
10.981,6.3115,0.71596,9.753,1.8326,-3.6522,1.4786,86.637,16.82,-36.696
11.08,7.8552,-2.2326,6.9101,0.47857,-7.1065,0.56662,73.943,24.978,-16.3
11.178,6.827,-5.593,3.6843,0.24226,-7.7971,0.10661,58.125,20.448,10.849
11.277,2.0325,-6.2546,5.3195,0.29515,-8.4361,-0.031873,50.637,7.3663,30.951
11.376,-0.62495,-7.1901,4.9432,-0.71988,-4.0187,0.69516,50.975,-9.675,46.25
11.475,-3.0804,-8.2574,3.004,-3.3659,0.69851,2.9087,57.591,-25.327,51.241
11.574,-4.7279,-9.3756,-2.4461,-2.1094,1.9806,3.8943,61.627,-38.661,38.029
11.673,-4.4772,-8.7209,-3.7397,-2.359,3.9602,4.7839,57.859,-46.016,3.9358
11.771,-7.0006,-4.3723,3.8916,-1.2111,3.6675,4.7577,54.295,-49.589,-35.698
11.87,-6.035,0.57181,6.8307,1.6347,3.2069,3.3251,50.554,-51.031,-78.662
11.969,-3.4253,4.992,9.2758,1.9833,2.4817,2.6767,50.482,-50.991,-105.66
12.068,-0.71402,6.7366,12.013,2.7763,1.2021,1.6579,69.115,-45.328,-95.931
12.167,4.4823,4.8082,9.6311,3.8608,1.9243,1.7433,86.926,-25.585,-75.501
12.265,5.9182,2.7839,9.7305,2.382,-1.8513,0.94373,89.394,0.50276,-56.628
12.364,8.1064,-1.4117,8.6239,0.22436,-5.836,1.752,79.053,25.988,-32.401
12.463,6.2088,-3.5136,5.0785,-0.44951,-6.5295,1.2105,52.675,35.281,3.0028
12.562,6.0851,-5.8582,3.3961,-0.16554,-7.2036,1.3585,36.709,23.618,26.914
12.661,0.13472,-6.5245,5.6629,-0.66737,-3.8936,1.157,31.448,8.0415,39.12
12.759,-1.0761,-6.9423,3.8373,-1.1714,1.3977,1.122,34.978,-7.7277,43.564
12.858,-8.1676,-3.9847,-1.8814,-1.0999,5.7045,1.3892,42.925,-25.608,50.996
12.957,-10.264,-4.9454,-3.5812,-0.89905,2.4304,-0.041077,48.577,-37.745,43.501
13.056,-9.1493,-1.9156,-1.2197,0.27919,8.4987,1.2079,38.964,-42.9,8.3233
13.155,-8.7782,-0.45999,6.9688,0.6605,2.4662,0.10849,32.144,-39.327,-33.499
13.253,-5.8075,-1.3544,5.512,-1.614,-0.27451,0.41388,30.202,-31.4,-75.712
13.352,2.3604,-2.0735,9.8588,-1.9107,-1.5708,0.16335,31.882,-23.194,-94.911
13.451,6.0108,-2.7573,6.1321,-0.78937,-0.47089,0.7726,36.717,-17.568,-94.2
13.55,3.7963,-0.58843,10.36,-0.38915,0.17985,0.53204,42.854,-10.562,-71.244
13.649,2.3786,1.957,9.9,-0.08694,-0.20915,0.24555,42.286,-5.4785,-45.517
13.747,0.66701,3.2762,10.085,-0.13195,0.26921,0.11982,39.145,-4.6931,-14.188
13.846,0.81236,2.9577,11.115,0.41233,0.064804,0.076272,33.744,-10.73,22.999
13.945,0.92807,2.157,10.369,0.51911,-0.22435,0.37524,31.262,-5.5994,26.224
14.044,0.67989,2.4145,8.5938,0.62638,-2.0609,0.5218,27.025,5.5692,17.04
14.143,1.8954,1.5898,9.6609,-0.037311,-0.015427,-0.1209,22.274,11.422,12.059
14.241,1.4809,0.86445,9.5552,0.07808,0.014335,-0.061129,18.54,13.666,10.112
14.34,-0.12918,1.2544,9.1294,0.20018,0.014977,-0.40564,16.395,14.629,10.185
14.439,-0.41209,0.20537,9.5271,0.029267,0.033331,-0.20966,15.104,14.091,9.5237
14.538,0.13487,-0.066911,9.6596,0.020376,0.016892,0.0055924,15.061,12.641,9.1045
14.637,-0.24773,0.80473,10.841,0.017161,0.014774,0.0055543,14.768,10.293,9.3645
14.735,0.27692,1.3759,9.8841,0.0161,0.015842,0.0055514,13.094,6.8295,7.7478
14.834,0.10673,0.053439,9.7804,0.018234,0.015822,0.0066353,11.019,2.559,0.72701
14.933,0.099244,0.041314,9.8145,0.017168,0.015838,0.0055601,10.998,1.1577,0.65267
15.032,0.097298,0.026345,9.8706,0.018241,0.016899,0.0055748,11.42,0.82788,0.55341
15.131,0.10119,0.040865,9.8203,0.018235,0.015835,0.0055689,12.914,-0.49866,0.24608
15.229,0.095651,0.014819,9.8473,0.0161,0.015842,0.0055514,14.251,-0.26921,0.42322
15.328,0.098046,-0.0079335,9.8516,0.017168,0.015838,0.0055601,14.354,-0.20357,0.43526
15.427,0.10284,0.031584,9.8405,0.018235,0.015835,0.0055689,14.353,-0.20751,0.43532
15.526,0.086819,0.047302,9.8363,0.015038,0.016896,0.0066148,14.352,-0.037473,0.4782
15.625,0.093106,0.027692,9.848,0.0161,0.015842,0.0055514,14.351,0.043851,0.49532
15.723,0.10972,0.031435,9.8202,0.016094,0.014778,0.0055455,14.349,0.091577,0.5014
15.822,0.087718,0.02425,9.8428,0.016094,0.014778,0.0055455,14.346,0.12879,0.51877
15.921,0.092358,0.039967,9.8372,0.019291,0.013717,0.0044997,14.345,0.14613,0.52826
16.02,0.095801,0.025896,9.8298,0.017158,0.014748,0.0076869,14.346,0.15884,0.53464
16.119,0.091011,0.035626,9.8404,0.0161,0.015842,0.0055514,14.347,0.16606,0.53342
16.217,0.10074,0.03847,9.8248,0.016094,0.014778,0.0055455,14.347,0.17414,0.53478
16.316,0.077539,0.042811,9.8483,0.015026,0.014781,0.0055367,14.346,0.17758,0.53749
16.415,0.08173,0.057331,9.8363,0.017155,0.01371,0.0055484,14.345,0.18229,0.53573
16.514,0.10149,0.04326,9.8386,0.017166,0.015825,0.0066265,14.344,0.1882,0.53898
16.613,0.10119,0.037572,9.8622,0.016101,0.015855,0.004485,14.344,0.19207,0.54437
16.711,0.10089,0.027842,9.8407,0.017174,0.016902,0.005566,14.342,0.19537,0.5429
16.81,0.077838,0.018412,9.8506,0.016107,0.016906,0.0055572,14.343,0.19436,0.54338
16.909,0.090711,0.034578,9.8334,0.01716,0.014761,0.0066206,14.341,0.19965,0.54385
17.008,0.089963,0.031884,9.8438,0.018229,0.014771,0.0055631,14.341,0.20527,0.54411
17.107,0.082478,0.028141,9.8332,0.018235,0.015835,0.0055689,14.341,0.20851,0.5543
17.205,0.085921,0.030986,9.8395,0.017168,0.015838,0.0055601,14.341,0.2172,0.55868
17.304,0.096699,0.063468,9.8494,0.017168,0.015838,0.0055601,14.338,0.23005,0.55857
17.403,0.090412,0.032333,9.8474,0.01716,0.014761,0.0066206,14.338,0.22879,0.55225
17.502,0.096998,0.05284,9.8362,0.016099,0.015829,0.0066177,14.338,0.22632,0.55061
17.601,0.0964,0.05748,9.8471,0.017161,0.014774,0.0055543,14.338,0.22377,0.55288
17.699,0.10583,0.042362,9.8524,0.016094,0.014778,0.0055455,14.339,0.22321,0.54882
17.798,0.10044,0.033231,9.8244,0.015038,0.016896,0.0066148,14.337,0.22145,0.54537
17.897,0.096699,0.044308,9.8513,0.017166,0.015825,0.0066265,14.335,0.22093,0.54683
17.996,0.091759,0.038021,9.8172,0.016092,0.014765,0.0066118,14.334,0.21865,0.54381
18.095,0.09146,0.040566,9.8254,0.015038,0.016896,0.0066148,14.335,0.21741,0.5487
18.193,0.10329,0.025896,9.8341,0.017168,0.015838,0.0055601,14.333,0.21662,0.55043
18.292,0.092059,0.012574,9.8393,0.017174,0.016902,0.005566,14.333,0.21937,0.54672
18.391,0.092807,0.046104,9.8383,0.017166,0.015825,0.0066265,14.332,0.21758,0.54738
18.49,0.089963,0.049098,9.8506,0.016089,0.013727,0.0044733,14.331,0.21954,0.55033
18.589,0.097447,0.015717,9.8578,0.017166,0.015825,0.0066265,14.327,0.22373,0.54594
18.687,0.094154,0.0479,9.8521,0.0161,0.015842,0.0055514,14.326,0.22494,0.54971
18.786,0.09116,0.036225,9.819,0.015033,0.015845,0.0055426,14.325,0.21953,0.54517
18.885,0.092358,0.025746,9.8582,0.016094,0.014778,0.0055455,14.324,0.21577,0.54305
18.984,0.10852,0.051194,9.8474,0.017161,0.014774,0.0055543,14.323,0.20964,0.54531
19.083,0.088316,0.061971,9.8449,0.016099,0.015829,0.0066177,14.323,0.21424,0.55139
19.181,0.085772,0.048499,9.8334,0.017173,0.016889,0.0066323,14.322,0.22124,0.55073
19.28,0.091011,0.031285,9.834,0.018235,0.015835,0.0055689,14.32,0.21897,0.55244
19.379,0.093256,0.048499,9.8334,0.017168,0.015838,0.0055601,14.318,0.22026,0.55532
19.478,0.097148,0.042811,9.8513,0.018229,0.014771,0.0055631,14.318,0.2188,0.55123
19.577,0.083676,0.068258,9.8383,0.0161,0.015842,0.0055514,14.317,0.21731,0.54885
19.675,0.10329,0.041314,9.8392,0.016094,0.014778,0.0055455,14.316,0.21922,0.54652
19.774,0.092358,0.032033,9.8561,0.016101,0.015855,0.004485,14.314,0.22035,0.54239
19.873,0.098345,0.046553,9.8459,0.016094,0.014778,0.0055455,14.315,0.22265,0.54159
19.972,0.092508,0.033979,9.8669,0.017168,0.015838,0.0055601,14.314,0.22093,0.54554
20.071,0.094005,0.032333,9.8392,0.015031,0.015832,0.0066089,14.314,0.22411,0.54616
20.169,0.091759,0.017364,9.8384,0.016086,0.013701,0.006606,14.314,0.228,0.54698
20.268,0.10299,0.051044,9.8301,0.0161,0.015842,0.0055514,14.314,0.22548,0.54946
20.367,0.10239,0.03832,9.8332,0.016104,0.01688,0.0076899,14.314,0.22761,0.55322
20.466,0.084424,0.030387,9.8345,0.016092,0.014765,0.0066118,14.315,0.22449,0.54906
20.565,0.066162,0.033231,9.8446,0.016095,0.014791,0.0044792,14.315,0.22628,0.54554
20.663,0.096549,0.034578,9.8456,0.016107,0.016906,0.0055572,14.314,0.22496,0.54845
20.762,0.099393,0.013771,9.8434,0.019302,0.015831,0.0055777,14.315,0.22426,0.55016
20.861,0.10493,0.041164,9.8411,0.016101,0.015855,0.004485,14.316,0.22528,0.55067
20.96,0.09625,0.034877,9.8319,0.018229,0.014771,0.0055631,14.317,0.2175,0.54531
21.059,0.076341,0.059277,9.8492,0.017168,0.015838,0.0055601,14.319,0.2192,0.54286
21.157,0.10194,0.040266,9.8492,0.017174,0.016902,0.005566,14.319,0.2219,0.54487
21.256,0.090861,0.039668,9.8613,0.018229,0.014771,0.0055631,14.319,0.22316,0.54155
21.355,0.093705,0.03847,9.8446,0.017161,0.014774,0.0055543,14.32,0.2213,0.53606
21.454,0.11331,0.0482,9.851,0.015039,0.016909,0.0055484,14.32,0.21848,0.53868
21.553,0.080383,0.03832,9.8449,0.017166,0.015825,0.0066265,14.319,0.22042,0.54232
21.651,0.093106,0.047751,9.8344,0.015033,0.015845,0.0055426,14.32,0.22072,0.54491
21.75,0.089664,0.013322,9.8393,0.018235,0.015835,0.0055689,14.318,0.22547,0.54939
21.849,0.10613,0.040865,9.8224,0.016099,0.015829,0.0066177,14.319,0.22245,0.54908
21.948,0.090562,0.040416,9.8265,0.015034,0.015858,0.0044762,14.318,0.22301,0.54856
22.047,0.079485,0.021405,9.8404,0.016107,0.016906,0.0055572,14.317,0.22619,0.54329
22.145,0.099693,0.032782,9.8351,0.011842,0.01797,0.0065943,14.318,0.22509,0.54472
22.244,0.087119,0.053888,9.8585,0.0161,0.015842,0.0055514,14.319,0.22977,0.54728
22.343,0.088915,0.046404,9.8423,0.018229,0.014771,0.0055631,14.319,0.22357,0.54489
22.442,0.10433,0.02395,9.8612,0.016095,0.014791,0.0044792,14.32,0.23195,0.54769
22.541,0.10284,0.038769,9.861,0.0161,0.015842,0.0055514,14.319,0.22836,0.55067
22.639,0.09625,0.042661,9.8251,0.016092,0.014765,0.0066118,14.318,0.23251,0.55074
22.738,0.085173,0.03832,9.8314,0.015024,0.014755,0.0076694,14.319,0.22972,0.5468
22.837,0.094454,0.051643,9.8353,0.018227,0.014758,0.0066294,14.319,0.22828,0.54635
22.936,0.10388,0.049547,9.8449,0.017153,0.013697,0.0066148,14.318,0.22532,0.54227
23.035,0.098645,0.02874,9.8498,0.016092,0.014765,0.0066118,14.319,0.22986,0.5401
23.133,0.078287,0.046404,9.8387,0.021412,0.011569,0.0055719,14.321,0.23215,0.54062
23.232,0.09131,0.029489,9.8447,0.015033,0.015845,0.0055426,14.322,0.23478,0.54212
23.331,0.11287,0.029489,9.8332,0.017155,0.01371,0.0055484,14.322,0.23163,0.54728
23.43,0.10029,0.035626,9.853,0.017166,0.015825,0.0066265,14.322,0.23586,0.54696
23.529,0.095501,0.061223,9.8429,0.016107,0.016906,0.0055572,14.321,0.23289,0.5451
23.627,0.099693,0.049098,9.8393,0.019282,0.012627,0.0066265,14.322,0.23484,0.54826
23.726,0.085472,0.050894,9.8281,0.013973,0.016926,0.0044733,14.324,0.23486,0.55347
23.825,0.10418,0.032333,9.8408,0.015051,0.019024,0.0066265,14.325,0.2352,0.55265
23.924,0.093256,0.040865,9.8497,0.01933,0.021112,0.008806,14.326,0.23496,0.55395
24.023,0.098196,0.071102,9.8536,0.018229,0.014771,0.0055631,14.325,0.23909,0.54676
24.121,0.11002,0.043709,9.8337,-0.13947,-0.12562,-0.045559,14.323,0.23082,0.54951
24.22,0.027094,0.035476,9.8369,-0.038957,0.19909,-0.34689,14.323,0.22887,0.5485
24.319,0.089364,0.041164,9.8214,-1.8564,1.3031,-0.4561,14.323,0.22806,0.55019
24.418,-0.13562,-0.016765,9.8046,-1.0507,-1.0533,-0.51563,14.321,0.22812,0.54293
24.517,-3.4641,2.8644,11.151,-0.54049,-2.3609,0.041309,14.322,0.23348,0.54347
24.615,1.02,1.0546,10.994,-1.4242,-2.4727,-1.5577,14.322,0.2319,0.54318
24.714,-0.88002,1.0457,5.528,-0.088178,-3.8166,-1.7214,14.323,0.23366,0.54284
24.813,0.68572,2.5323,10.826,2.5704,3.252,-1.5543,14.324,0.23168,0.53815
24.912,-1.1072,3.4713,9.4439,1.9717,2.53,-1.7007,14.324,0.23649,0.53984
25.011,-3.7913,5.2321,5.3053,0.043172,6.1462,-0.74138,14.326,0.23815,0.52384
25.109,-5.6223,2.6414,3.979,-1.6649,1.4539,-1.0029,14.318,0.24662,0.51407
25.208,-9.3716,2.184,7.8236,-1.2283,-0.31425,-0.089698,14.32,0.25316,0.52045
25.307,-5.7669,-2.0181,5.1461,-1.0218,-2.2818,0.39182,14.322,0.24865,0.52568
25.406,-1.6931,-2.4235,9.3355,-0.18542,-5.2628,-1.7653,14.259,0.82368,0.52048
25.505,5.7715,-2.4627,9.7615,0.57057,-4.7806,-2.2385,19.548,2.0347,2.4079
25.603,4.5624,-0.38455,7.834,1.5429,-2.4077,-1.7994,18.394,10.928,1.5733
25.702,1.4942,3.0586,10.135,2.1948,-0.17508,-1.0375,18.908,15.738,2.3941
25.801,-1.2069,2.4553,8.4739,1.0409,4.0412,-0.3554,19.394,19.783,-5.7445
25.9,-5.8736,1.2146,6.0405,-0.42399,6.5362,0.028973,21.25,22.109,-23.91
25.999,-9.1027,-0.38784,4.107,-1.218,5.5948,-0.39755,33.037,20.974,-42.339
26.097,-7.7551,-3.2917,1.6556,-1.6621,1.5672,0.86823,36.909,13.485,-52.446
26.196,-8.1685,-4.2774,2.9082,-2.7659,-0.79948,1.5244,33.762,-0.40162,-41.169
26.295,-4.4877,-5.604,5.9214,-1.9112,-3.2965,-0.97327,34.798,-10.669,-21.653
26.394,2.0596,-4.2932,7.6016,-1.5557,-4.1179,-2.5488,39.899,-8.1541,6.4513
26.493,6.2101,-2.8231,8.6569,0.12488,-3.1132,-2.3023,42.53,-1.9192,16.016
26.591,2.98,0.33141,8.3245,0.81725,-2.1876,-1.7754,40.491,5.0413,15.704
26.69,-0.39653,1.8467,9.7895,0.45111,-2.6707,-1.5102,39.663,11.251,2.3236
26.789,-3.5609,3.9545,10.383,1.2207,0.70987,-0.50113,48.864,10.73,-27.493
26.888,-6.26,2.768,8.0697,1.5473,2.3763,-0.16089,55.591,1.3854,-53.967
26.987,-7.6434,1.0944,5.1511,1.486,3.4918,-0.43897,53.889,-10.597,-67.869
27.085,-8.2916,-1.2054,1.5839,-0.28762,4.3355,-1.0206,45.744,-20.113,-73.2
27.184,-9.5305,-2.0811,1.4855,-0.99462,6.9621,-0.89372,39.965,-24.371,-57.277
27.283,-9.3979,-2.5094,1.9192,-1.7554,1.3442,0.074965,41.155,-23.948,-26.131
27.382,-9.1494,-3.3821,1.4514,-2.1017,0.38707,0.9936,43.362,-20.227,6.2126
27.481,-6.9478,-3.5773,4.8162,-0.82716,-3.0312,-0.15027,38.815,-13.07,20.443
27.579,-0.81176,-3.8593,6.633,-0.56006,-5.2033,-1.4865,26.721,-3.1832,18.159
27.678,3.1477,-2.2226,10.484,0.36084,-5.4567,-1.6254,23.034,7.9402,6.6826
27.777,3.0724,-1.0384,8.8481,0.69563,-3.4458,-1.0048,32.641,16.622,-13.756
27.876,0.55939,0.34428,10.712,1.1547,-1.1699,-0.34131,48.106,15.315,-42.025
27.975,-2.6965,1.5961,10.898,1.1974,1.3678,-0.087164,52.771,5.1464,-58.232
28.073,-5.765,0.28665,6.699,0.027464,5.331,-0.63079,52.807,-5.5745,-74.503
28.172,-8.5897,-1.3089,2.6444,0.11066,9.0908,-1.3155,49.931,-11.965,-83.22
28.271,-9.0216,-2.3955,0.53169,0.56047,1.2082,-1.1458,42.519,-15.126,-79.387
28.37,-9.6168,-2.2579,-2.0335,-2.5133,0.55552,0.63707,35.454,-17.983,-73.524
28.469,-9.2777,-2.4781,-0.97672,-0.84874,-2.4283,0.40418,30.244,-23.059,-54.427
28.567,-7.0635,-2.718,5.4229,-1.1817,-5.223,-0.33152,56.202,-24.696,-25.388
28.666,1.5324,-4.6755,9.0406,-0.43593,-6.029,-1.4314,64.554,-19.605,8.5358
28.765,6.54,-3.5621,8.9467,0.87994,-4.3488,-1.6897,63.14,-10.873,13.174
28.864,4.0525,-0.94753,12.007,1.3385,-1.2965,-1.167,55.951,-3.1854,12.111
28.963,0.30132,-0.551,10.155,1.5046,1.0325,-0.68258,55.234,1.5621,-0.88672
29.061,-4.3092,0.21091,9.6612,0.12992,2.829,-0.70652,62.406,3.7922,-27.142
29.16,-7.9247,-0.48454,4.1187,-0.72944,4.3767,-0.88645,68.403,-2.7665,-58.028
29.259,-8.6568,-2.4232,0.49697,-0.86507,6.6887,-1.7121,67.28,-10.12,-79.038
29.358,-9.0261,-3.3399,-0.84215,-2.585,2.6,-0.6022,61.952,-13.902,-88.487
29.457,-9.1419,-4.0898,-0.68318,-1.7141,0.58096,0.9616,55.349,-14.517,-90.583
29.555,-8.0329,-4.4699,0.85203,-1.7192,-3.3774,0.54644,53.61,-16.763,-72.867
29.654,-5.6416,-4.6504,4.3375,-2.1419,-3.1627,-1.064,57.93,-20.017,-31.435
29.753,2.6947,-5.2202,6.6725,-0.53143,-4.0838,-1.9473,66.651,-27.282,16.208
29.852,5.9602,-2.261,10.718,0.23635,-3.7096,-2.1117,63.463,-17.419,23.467
29.951,4.0873,-0.60654,9.5413,0.98169,-3.4734,-2.0445,56.401,-10.155,21.504
30.049,-1.4863,1.7545,8.8854,1.2058,-2.9259,-1.018,54.834,-4.6995,0.61032
30.148,-4.6323,2.9664,9.87,1.3802,0.44319,-0.48634,60.279,0.37278,-28.917
30.247,-6.7022,1.6157,7.1072,1.2857,2.2821,-0.5688,66.544,-4.9956,-59.364
30.346,-8.7545,-0.49742,3.8578,0.41439,2.8364,-1.1222,65.119,-14.064,-82.513
30.445,-8.2306,-2.2513,0.41703,-0.35592,4.06,-1.5367,58.057,-19.846,-91.335
30.543,-8.577,-2.3175,-2.9831,-1.0009,5.3472,-1.9562,50.469,-23.564,-87.559
30.642,-9.4849,-2.2982,-2.6914,-1.3666,3.555,-0.61679,49.6,-27.673,-73.355
30.741,-10.035,-3.008,-1.4336,-0.94321,1.2935,-0.078572,55.564,-30.746,-47.384
30.84,-9.2991,-3.796,0.59097,-1.4198,0.55517,0.211,66.817,-30.522,-5.7737
30.939,-6.4082,-4.8909,3.7617,-1.5636,-1.3764,0.10222,68.556,-18.927,19.123
31.037,0.55085,-5.4663,5.8828,-0.52597,-2.641,-0.11793,60.317,-9.6754,23.032
31.136,3.8686,-3.7751,9.4079,-0.76277,-4.5867,-1.1372,53.874,-0.2614,8.1298
31.235,3.2388,-3.4879,8.6084,-0.0049159,-4.7567,-1.0849,57.622,12.199,-12.107
31.334,2.9311,-2.1265,10.277,0.80483,-3.3399,-0.73355,67.273,11.105,-35.863
31.433,1.9796,-0.61522,10.786,1.3033,-2.6803,-0.94125,74.917,3.3795,-58.877
31.531,-2.4682,0.061672,9.8709,2.4133,1.187,-0.14743,75.664,-7.8878,-78.958
31.63,-4.0588,-0.027692,8.8134,0.70573,5.1337,-1.119,70.322,-14.201,-97.809
31.729,-7.4225,-0.33306,5.3747,0.51756,6.0471,-1.6295,62.037,-15.987,-104.63
31.828,-9.6253,-1.5762,2.3717,0.058879,6.7287,-2.9519,53.965,-17.419,-97.661
31.926,-9.2994,-2.2155,-0.41733,-1.2893,1.123,-0.74567,47.927,-21.505,-86.146
32.025,-9.5409,-2.9173,-1.738,-2.4675,0.67475,0.35977,48.465,-28.277,-68.42
32.124,-8.483,-2.7034,1.7904,-2.4896,-0.44215,-0.095472,56.91,-33.189,-37.948
32.223,-5.2252,-4.2503,4.8685,-2.0053,-3.0712,-0.58038,69.47,-32.22,-1.1224
32.322,3.3351,-5.6877,7.847,-1.6533,-3.9335,-1.1538,70.336,-24.648,11.321
32.42,6.8939,-4.9406,7.9958,-0.33638,-3.0701,-1.97,68.923,-19.673,14.706
32.519,4.7567,-2.0115,8.0366,0.5238,-3.7576,-2.615,65.55,-12.881,16.78
32.618,4.2913,0.32572,9.2984,1.7009,-3.7004,-2.1145,63,-5.4586,8.2724
32.717,3.1381,1.7231,10.434,2.2461,-2.8741,-1.2566,64.234,-2.197,-7.2009
32.816,-1.5837,3.167,9.454,1.2912,3.1843,-0.6566,71.05,-0.51321,-30.739
32.914,-5.2402,3.8653,9.5579,1.0404,5.5335,-0.48589,75.405,-4.4141,-55.463
33.013,-6.3678,1.3813,6.0658,0.50246,6.7874,-1.3483,73.88,-10.105,-73.822
33.112,-8.714,-0.28456,3.1107,-0.074211,7.4697,-2.1727,68.103,-15.888,-88.747
33.211,-8.1151,-3.2677,-3.7434,-0.89233,2.3614,-0.66312,56.074,-17.924,-95.147
33.31,-9.7126,-2.9605,-2.5281,-0.91194,0.47614,0.017468,49.325,-21.532,-72.55
33.408,-10.164,-2.5266,2.5664,0.19082,0.67369,0.024446,52.029,-28.897,-40.629
33.507,-4.9595,-4.4842,6.1043,0.22909,0.3066,0.10167,64.845,-34.506,2.492
33.606,3.4526,-5.0845,5.9055,0.25864,0.067509,0.06862,74.862,-27.851,24.605
33.705,7.844,-4.3579,7.5228,-0.024175,-0.12687,-0.060611,71.485,-21.218,26.481
33.804,6.8369,-3.5183,6.4595,-0.062457,-0.10329,-0.063997,63.846,-10.069,29.483
33.902,6.811,-3.3387,6.6676,-0.1982,-0.13473,-0.068488,59.741,2.3716,22.668
34.001,6.2282,-3.0043,5.9519,-1.7284,-3.2419,-0.0063599,62.688,12.073,0.37717
34.1,6.6243,-2.8679,6.2766,-3.1348,-3.1434,0.042293,70.845,17.702,-20.463
34.199,6.8321,-3.1068,6.0338,-0.99893,-0.78258,0.38632,82.938,12.463,-44.074
34.298,6.8035,-3.1869,6.3709,-0.11318,-1.9845,-0.1376,86.735,-0.32251,-64.652
34.396,6.7544,-3.2393,6.0082,0.2207,-5.8977,-1.8091,81.416,-11.849,-86.024
34.495,7.2946,-2.9466,4.7909,0.67411,-5.1022,-2.0687,68.739,-16.855,-98.346
34.594,2.2543,0.44996,8.8131,1.2296,-3.4041,-0.9874,60.886,-19.44,-83.58
34.693,0.075293,2.7139,11.184,1.168,-1.8733,-0.68629,57.188,-24.167,-56.224
34.792,-0.22079,1.8638,10.127,0.7128,-0.7107,-0.71036,61.576,-30.276,-19.041
34.89,-4.3907,2.1672,9.9586,1.2692,1.8503,-0.58515,73.327,-29.726,25.717
34.989,-7.7121,-0.21884,4.0971,0.40119,5.4427,-1.0782,75.865,-23.09,41.596
35.088,-8.7975,-1.5057,1.6623,-0.31464,7.7371,-2.3971,73.792,-19.924,43.186
35.187,-8.6945,-2.2808,-1.2911,0.99618,7.9571,-4.021,73.48,-19.339,45.273
35.286,-7.8654,-2.5375,-2.9016,-1.1558,0.76846,-0.7657,73.854,-19.986,47.077
35.384,-9.0996,-3.2138,-4.0576,-2.0969,-0.093674,-0.066868,74.216,-20.28,47.574
35.483,-9.0005,-3.969,-1.7105,-0.81124,0.15213,-0.13703,74.632,-20.464,47.684
35.582,-8.1293,-2.357,5.6166,-0.73878,0.12658,-0.1547,74.851,-19.947,47.406
35.681,1.5578,-4.8321,3.9937,0.3467,-0.3465,0.22812,74.74,-19.286,46.506
35.779,9.96,-5.2259,5.3472,0.084313,-0.83672,0.27126,72.705,-16.614,40.13
35.878,6.981,-3.2665,6.8851,-0.11804,-1.1129,0.28515,65.438,-5.0301,20.916
35.977,5.4318,-1.2825,7.5472,0.0026573,-0.56743,0.28486,61.746,7.0815,8.2281
36.076,6.5495,-1.9416,4.9322,0.087276,-0.90416,0.13015,61.157,9.9233,1.3686
36.175,7.0018,-1.4963,8.1964,0.0018064,-0.91866,0.11977,63.818,9.5897,-14.082
36.273,6.6168,-1.8231,8.122,-0.012651,-0.66608,0.090105,70.962,3.0311,-45.799
36.372,6.1568,-2.4351,7.3924,0.044069,-0.46711,0.075663,73.144,-6.9909,-69.456
36.471,4.9667,-2.2283,8.4341,0.1382,-0.43041,0.095835,68.221,-12.997,-87.305
36.57,3.975,-2.2603,8.833,-0.0051045,-1.3571,0.12372,61.711,-15.767,-98.929
36.669,3.8903,-2.172,9.4754,0.13311,-2.3514,0.049051,56.417,-17.816,-106.18
36.767,2.7341,-2.0513,9.7193,0.070997,-3.101,0.014589,49.551,-19.077,-100.32
36.866,2.6492,-2.1344,9.4837,0.097736,-3.2902,-0.090732,47.398,-24.421,-73.975
36.965,1.8328,-2.1473,9.4183,0.064694,-3.4703,-0.14531,56.763,-32.092,-27.667
37.064,1.0824,-2.3188,9.9148,0.0082838,-2.9415,-0.30285,80.472,-36.023,32.234
37.163,-0.34593,-1.9813,10.019,0.48126,-2.1801,-0.12736,84.417,-26.806,46.577
37.261,-2.4333,-2.0239,8.9687,0.84799,-1.5141,0.040324,76.845,-18.371,43.511
37.36,-5.5181,-1.7608,8.3234,0.929,0.35193,-0.30394,71.525,-13.444,43.595
37.459,-7.7495,-2.0804,5.5696,0.90879,1.4388,-0.25552,70.558,-11.479,44.39
37.558,-9.0232,-2.563,2.2531,0.058323,1.5996,-0.56878,67.727,-11.046,44.546
37.657,-8.7535,-3.1589,0.17289,-0.94138,-0.90579,-0.16841,67.084,-12.695,41.63
37.755,-8.6604,-3.1242,-2.3651,0.66882,-1.9559,0.36702,66.133,-13.431,36.973
37.854,-8.8629,-2.8477,-4.417,0.43035,-0.49453,0.043509,64.582,-14.116,32.756
37.953,-8.5053,-3.4568,-3.4348,0.18624,0.075498,-0.043907,63.335,-14.265,28.521
38.052,-8.6396,-3.2954,-2.2618,0.028891,0.16527,-0.12256,62.345,-13.727,23.207
38.151,-8.4914,-3.397,-0.75533,0.13883,0.16886,-0.096043,61.403,-13.309,18.948
38.249,-8.8011,-4.0161,-0.89619,0.051361,-0.13356,0.11913,60.778,-12.822,14.838
38.348,-8.6622,-3.6085,-3.8039,0.24473,0.056138,0.044982,60.346,-12.808,11.505
38.447,-8.4136,-3.127,-3.9801,0.053063,-0.052241,-0.0051793,59.908,-13.133,7.9873
38.546,-8.2847,-3.174,-3.9795,-0.035862,0.058392,-0.067161,59.324,-13.174,-0.029733
38.645,-8.3703,-3.2096,-3.7202,0.26864,0.73593,-0.47259,58.901,-13.729,-12.407
38.743,-8.0452,-3.3375,-3.7093,0.067291,3.5948,-1.6232,58.724,-13.861,-28.575
38.842,-8.4338,-3.1673,-3.9175,-0.96625,5.4195,-2.043,58.326,-14.429,-45.67
38.941,-8.7903,-2.8125,-3.8804,-2.1264,7.9932,-3.5624,57.778,-15.326,-63.206
39.04,-8.3447,-3.0575,-4.1061,-3.7239,0.25807,0.12638,57.847,-17.049,-78.982
39.139,-8.2131,-2.9932,-4.1052,-2.6344,-1.2124,1.0605,55.777,-18.58,-92.934
39.237,-8.454,-2.92,-4.0432,-0.80392,-2.401,-0.35672,51.815,-18.231,-105.35
39.336,-8.0594,-4.2042,-1.205,0.34707,-2.9285,-0.58578,47.101,-17.667,-109.73
39.435,-6.0859,-5.3904,2.5797,0.42356,-2.9943,-0.61644,41.047,-17.638,-104.91
39.534,4.0867,-6.6899,8.6143,0.59462,-3.4802,-0.60701,38.601,-20.094,-95.815
39.633,2.4985,-1.8371,8.802,1.131,-3.5646,-0.54333,40.765,-22.446,-92.341
39.731,-0.92553,1.0104,10.596,1.373,-2.3613,-0.50384,43.078,-21.633,-102.36
39.83,-2.4489,1.7533,9.8066,1.5033,-0.52709,-0.26667,40.579,-19.239,-112.15
39.929,-4.918,1.1837,8.3453,0.79077,1.0693,-0.72346,39.258,-18.899,-113.27
40.028,-6.9253,-0.44053,6.9128,-0.013836,2.8238,-1.0255,38.287,-19.287,-113.2
40.126,-8.9494,-1.261,4.4645,-0.54091,2.4723,-1.2109,37.619,-19.809,-113.39
40.225,-9.3249,-1.3355,0.52331,-0.6929,4.3835,-1.9707,37.059,-19.71,-113.18
40.324,-9.1457,-2.1977,-2.3775,-0.40601,5.6585,-2.5041,36.646,-19.205,-113.54
40.423,-9.5615,-1.5991,-4.2253,-1.2111,2.0136,-0.94171,35.705,-18.524,-113.77
40.522,-8.5466,-1.8909,-3.713,-1.571,0.24238,0.16005,35.514,-18.347,-114.56
40.62,-9.1479,-3.2714,-0.38724,-1.1998,-0.44731,0.42915,35.301,-18.664,-114.77
40.719,-8.3598,-3.7424,0.80622,-0.37516,-2.2835,0.54004,32.959,-20.292,-111.73
40.818,-5.1711,-4.948,5.0562,-0.125,-4.5413,0.46687,30.336,-27.607,-95.941
40.917,0.58468,-5.9864,6.5005,0.26538,-4.9748,0.32269,37.866,-37.052,-66.42
41.015,4.5731,-5.2159,8.368,0.55358,-1.6158,0.25595,64.496,-39.102,-9.6559
41.114,3.8964,-3.4491,9.2286,0.19745,1.6174,0.11923,69.156,-22.37,12.161
41.213,2.2097,-1.8573,9.9233,-0.27354,2.1272,0.22477,62.194,-4.7899,2.4824
41.312,0.60115,-1.4584,9.6621,-0.39184,5.3797,0.35885,62.749,4.7427,-9.9402
41.411,-3.2622,-1.3863,9.8125,-1.06,2.9374,0.55969,65.136,3.8537,-24.287
41.509,-8.0167,-1.3885,6.1652,-0.13578,0.7581,0.42745,66.531,0.63366,-40.489
41.608,-8.8747,-1.8576,3.4252,-0.6426,0.40724,0.27525,67.015,-3.6465,-58.11
41.707,-8.5574,-1.7326,4.4435,-0.69368,0.61167,0.27701,64.458,-8.8988,-78.052
41.806,-6.8848,-1.9675,4.9275,0.15982,0.35098,0.23145,57.645,-12.619,-96.882
41.904,-3.4172,-1.3587,8.6611,0.31214,0.26133,0.041326,49.632,-13.131,-107.01
42.003,-0.88242,0.35835,11.391,0.3246,0.19378,-0.0069282,42.009,-12.929,-109.31
42.102,0.55415,0.5793,9.6877,0.060656,-0.48399,0.40736,37.495,-16.303,-100.88
42.201,0.21585,0.38201,10.098,0.84371,-0.28891,0.87238,37.945,-21.747,-86.763
42.3,0.98705,0.91774,8.8189,0.048952,0.57148,0.32665,42.802,-28.548,-67.592
42.398,0.6492,1.6196,9.2036,0.024612,0.011545,0.0066646,54.021,-34.892,-36.22
42.497,0.56657,1.2016,9.9639,0.018216,0.012643,0.0055514,70.063,-35.786,2.6747
42.596,0.6254,0.83481,10.787,0.016087,0.013714,0.0055396,74.695,-28.863,17.046
42.695,0.41988,0.72509,10.026,0.019292,0.01373,0.0034333,71.662,-21.45,15.998
42.794,-0.50445,0.48843,13.054,0.016082,0.012663,0.0044675,68.037,-16.238,12.156
42.892,-1.2565,0.46733,6.3571,0.017156,0.013724,0.0044821,65.154,-13.479,0.86943
42.991,0.061372,0.019909,9.8581,0.01608,0.012637,0.0066001,62.662,-10.963,-21.224
43.09,0.058528,0.039069,9.8357,0.015012,0.01264,0.0065913,60.652,-9.9893,-49.695
43.189,0.066611,0.02425,9.8515,0.017148,0.012647,0.0055426,57.628,-11.029,-65.764
43.287,0.072898,0.037572,9.8405,0.017155,0.01371,0.0055484,55.013,-11.5,-64.303
43.386,0.082628,0.0098795,9.8706,0.016092,0.014765,0.0066118,55.311,-10.402,-56.895
43.485,0.069007,0.013622,9.8455,0.018214,0.01263,0.0066177,55.305,-8.4436,-32.88
43.584,0.065414,0.020507,9.8512,0.01608,0.012637,0.0066001,54.03,-3.2149,-10.272
43.683,0.081281,0.044757,9.8446,0.017161,0.014774,0.0055543,51.718,1.4767,-1.2843
43.781,0.072898,0.016915,9.8486,0.016068,0.010522,0.0055221,49.364,2.8584,1.6317
43.88,0.075293,0.017364,9.8416,0.018209,0.011579,0.0055455,47.984,5.8098,3.4353
43.979,0.088765,0.011227,9.8492,0.017148,0.012647,0.0055426,46.819,7.2698,5.0649
44.078,0.067061,0.024699,9.8474,0.018219,0.013681,0.0076899,46.223,6.9609,3.0789
44.176,0.083975,0.021405,9.8404,0.017153,0.013697,0.0066148,46.217,5.6533,1.8762
44.275,0.064815,0.037123,9.8271,0.01502,0.013717,0.0055309,45.998,5.2503,0.9451
44.374,0.062121,0.033081,9.8461,0.016081,0.01265,0.0055338,43.993,5.0747,-1.6092
44.473,0.075144,0.037123,9.8181,0.016089,0.013727,0.0044733,40.284,2.0346,-3.9271
44.572,0.060474,0.029189,9.8393,0.018223,0.01372,0.0044909,38.543,0.33456,-0.92091
44.67,0.059576,0.027393,9.8366,0.016082,0.012663,0.0044675,38.465,0.38212,-1.7971
44.769,0.06736,0.027692,9.8581,0.016081,0.01265,0.0055338,38.468,0.48393,-1.7238
44.868,0.073048,0.035027,9.8181,0.016094,0.014778,0.0055455,38.465,0.35603,-0.90617
44.967,0.066312,0.024399,9.8437,0.017147,0.012634,0.0066089,38.467,0.29124,-0.49858
45.065,0.076341,0.048948,9.8348,0.016089,0.013727,0.0044733,38.468,0.25232,-0.29209
45.164,0.068857,0.026345,9.8266,0.016094,0.014778,0.0055455,38.471,0.22742,-0.13775
45.263,0.069605,0.041913,9.8488,0.017155,0.01371,0.0055484,38.474,0.20441,-0.03653
45.362,0.060923,0.034279,9.8251,0.018216,0.012643,0.0055514,38.48,0.19325,0.029502
45.461,0.074395,0.024998,9.8723,0.018216,0.012643,0.0055514,38.483,0.18675,0.089101
45.559,0.052092,0.015418,9.8428,0.017155,0.01371,0.0055484,38.486,0.18275,0.13073
45.658,0.078287,0.015717,9.8423,0.01396,0.014798,0.0044616,38.489,0.17619,0.16694
45.757,0.082928,0.032183,9.8181,0.018214,0.01263,0.0066177,38.49,0.17597,0.19705
45.856,0.074246,0.011077,9.8512,0.015019,0.013704,0.0065972,38.492,0.1702,0.2206
45.955,0.058079,0.01901,9.8519,0.016081,0.01265,0.0055338,38.494,0.166,0.24531
46.053,0.08158,0.034428,9.8399,0.015029,0.014807,0.0034041,38.496,0.15985,0.26163
46.152,0.067659,0.041164,9.8558,0.017156,0.013724,0.0044821,38.498,0.1579,0.27466
46.251,0.059277,0.022603,9.8377,0.01927,0.010512,0.0055484,38.502,0.15277,0.28746
46.35,0.084424,0.027243,9.8531,0.018214,0.01263,0.0066177,38.503,0.15287,0.29292
46.448,0.080982,0.027992,9.8345,0.017148,0.012647,0.0055426,38.506,0.15305,0.30036
46.547,0.07694,0.033231,9.835,0.016092,0.014765,0.0066118,38.508,0.14525,0.29966
46.646,0.074545,0.017663,9.8331,0.016081,0.01265,0.0055338,38.51,0.1496,0.30799
46.745,0.082778,0.02904,9.8554,0.014999,0.010513,0.0065796,38.512,0.1493,0.31914
46.844,0.080982,0.031435,9.8405,0.018221,0.013694,0.0066235,38.515,0.14748,0.32341
46.942,0.063767,0.026046,9.8432,0.017148,0.012647,0.0055426,38.517,0.14055,0.32477
47.041,0.05763,0.011526,9.8534,0.015014,0.012653,0.005525,38.519,0.14411,0.32813
47.14,0.065414,0.03862,9.8362,0.017155,0.01371,0.0055484,38.523,0.14796,0.33086
47.239,0.080682,0.019759,9.8166,0.018216,0.012643,0.0055514,38.526,0.14944,0.33803
47.338,0.046703,0.032482,9.8542,0.017156,0.013724,0.0044821,38.528,0.1416,0.33809
47.436,0.074545,0.026196,9.8166,0.017155,0.01371,0.0055484,38.529,0.14179,0.34082
47.535,0.061073,0.028141,9.8365,0.01715,0.01266,0.0044762,38.532,0.14275,0.34547
47.634,0.068857,0.014669,9.8161,0.019282,0.012627,0.0066265,38.534,0.13818,0.34305
47.733,0.068408,0.016017,9.8402,0.013967,0.015862,0.0044675,38.535,0.13953,0.33826
47.831,0.068857,0.030686,9.8581,0.017155,0.01371,0.0055484,38.538,0.1415,0.34298
47.93,0.047002,0.018262,9.8179,0.016087,0.013714,0.0055396,38.541,0.14073,0.34266
48.029,0.080982,0.024549,9.8618,0.018214,0.01263,0.0066177,38.543,0.13691,0.3409
48.128,0.074395,0.026495,9.8337,0.015026,0.014781,0.0055367,38.545,0.13122,0.34185
48.227,0.0723,0.032183,9.844,0.019275,0.011563,0.0066206,38.546,0.13819,0.34194
48.325,0.073198,0.020956,9.8482,0.020334,0.0094705,0.0034187,38.548,0.14457,0.34457
48.424,0.061223,0.041913,9.8301,0.018216,0.012643,0.0055514,38.55,0.14583,0.34618
48.523,0.058379,0.022902,9.8643,0.016081,0.01265,0.0055338,38.552,0.15056,0.34729
48.622,0.083676,0.006736,9.8489,0.01502,0.013717,0.0055309,38.556,0.14911,0.34918
48.721,0.075144,0.01437,9.8555,0.017148,0.012647,0.0055426,38.557,0.15148,0.3479
48.819,0.053888,0.016166,9.8106,0.015021,0.01373,0.0044645,38.561,0.14267,0.34848
48.918,0.068258,0.041015,9.8366,0.016087,0.013714,0.0055396,38.564,0.1468,0.34493
49.017,0.073797,0.037871,9.8239,0.017155,0.01371,0.0055484,38.567,0.14466,0.34033
49.116,0.078736,0.030387,9.8485,0.015019,0.013704,0.0065972,38.569,0.14308,0.34221
49.215,0.053139,0.021256,9.8539,0.016075,0.011586,0.0055279,38.571,0.14565,0.34238
49.313,0.077239,0.039069,9.8278,0.01502,0.013717,0.0055309,38.574,0.14448,0.33734
49.412,0.080233,0.026196,9.8155,0.017161,0.014774,0.0055543,38.577,0.14044,0.33812
49.511,0.074994,0.012724,9.8534,0.020333,0.0094574,0.004485,38.58,0.13859,0.33897
49.61,0.070503,0.030986,9.831,0.022473,0.010501,0.0055748,38.582,0.13976,0.34334
49.709,0.079036,0.015867,9.85,0.019264,0.0094478,0.0055426,38.584,0.14542,0.3427
49.807,0.073347,0.035327,9.8578,0.017148,0.012647,0.0055426,38.586,0.14548,0.33995
49.906,0.070653,0.036075,9.8509,0.013953,0.013721,0.0055221,38.589,0.14717,0.34086
50.005,0.080982,0.035327,9.826,0.017153,0.013697,0.0066148,38.591,0.14782,0.34043
50.104,0.071252,0.041164,9.8539,0.01715,0.01266,0.0044762,38.594,0.15022,0.34459
50.202,0.060774,0.044757,9.8598,0.018216,0.012643,0.0055514,38.595,0.14929,0.34126
50.301,0.066162,0.023202,9.8116,0.016075,0.011586,0.0055279,38.598,0.15401,0.34078
50.4,0.072,0.012873,9.8365,0.018197,0.0094513,0.0055338,38.6,0.15249,0.34167
50.499,0.066013,0.031584,9.825,0.019296,0.014767,0.0055719,38.603,0.15416,0.34311
50.598,0.077389,0.0076341,9.8299,0.017137,0.010532,0.0044645,38.606,0.15201,0.3471
50.696,0.071252,0.011227,9.8328,0.018211,0.011592,0.0044792,38.608,0.15104,0.34494
50.795,0.072449,0.029489,9.8575,0.012892,0.014788,0.0055191,38.61,0.14277,0.35071
50.894,0.079934,0.032033,9.8521,0.016086,0.013701,0.006606,38.614,0.14872,0.35049
50.993,0.072449,0.01916,9.8486,0.017147,0.012634,0.0066089,38.616,0.14798,0.35548
51.091,0.049547,0.018262,9.8494,0.016092,0.014765,0.0066118,38.619,0.14247,0.35506
51.19,0.073497,0.039069,9.8461,0.017142,0.011583,0.0055367,38.623,0.13804,0.3515
51.289,0.071102,0.032932,9.8627,0.016095,0.014791,0.0044792,38.625,0.14341,0.36099
51.388,0.078736,0.040865,9.8405,0.016087,0.013714,0.0055396,38.626,0.14796,0.35949
51.487,0.056582,0.047152,9.845,0.017155,0.01371,0.0055484,38.628,0.13872,0.35797
51.585,0.065713,0.052092,9.8486,0.015026,0.014781,0.0055367,38.63,0.14152,0.35536
51.684,0.072599,0.033979,9.8211,0.013965,0.015849,0.0055338,38.633,0.14072,0.3539
51.783,0.054038,0.051942,9.8504,0.016099,0.015829,0.0066177,38.634,0.14163,0.35065
51.882,0.078138,0.013771,9.8236,0.017136,0.010519,0.0055309,38.636,0.14349,0.34975
51.98,0.063767,0.013023,9.8441,0.018209,0.011579,0.0055455,38.638,0.14266,0.35331
52.079,0.073048,0.029788,9.822,0.013958,0.014772,0.0065943,38.637,0.147,0.35423
52.178,0.065264,0.025746,9.8604,0.022467,0.0094505,0.0045026,38.638,0.14891,0.35294
52.277,0.068557,0.015867,9.8485,0.016095,0.014791,0.0044792,38.64,0.15193,0.35514
52.376,0.079634,0.026495,9.8518,0.012885,0.013724,0.0055133,38.641,0.15064,0.34726
52.474,0.062121,0.040865,9.8498,0.016089,0.013727,0.0044733,38.642,0.1545,0.35425
52.573,0.039967,0.037871,9.8329,0.015015,0.012667,0.0044587,38.644,0.15186,0.35212
52.672,0.06257,0.0092807,9.8372,0.017161,0.014774,0.0055543,38.645,0.14911,0.3526
52.771,0.065863,0.023651,9.8618,0.018222,0.013707,0.0055572,38.646,0.15925,0.3599
52.87,0.05778,0.01452,9.8482,0.012911,0.01798,0.0055367,38.647,0.15679,0.36177
