Time,Acceleration X,Acceleration Y,Acceleration Z,Angular Velocity X,Angular Velocity Y,Angular Velocity Z,Yaw,Pitch,Roll
0,-5.9997,-7.5639,0.10987,0.016122,0.020058,0.0087738,10.035,-51.616,-88.904
0.099,-6.0465,-7.5135,0.10987,0.011812,0.014674,0.015107,10.048,-51.573,-88.912
0.198,-6.1013,-7.5166,0.099842,0.01824,0.016886,0.0066411,10.049,-51.499,-88.911
0.297,-6.0112,-7.5729,0.12739,0.020415,0.021278,-0.0050475,10.011,-51.486,-88.911
0.395,-6.0043,-7.5894,0.11242,0.013967,0.014863,-0.00087005,9.9988,-51.524,-88.907
0.494,-6.0506,-7.5581,0.11182,0.014989,0.0084108,0.0044352,10.046,-51.546,-88.88
0.593,-6.0344,-7.556,0.10418,0.018258,0.018067,-0.00295,10.057,-51.522,-88.903
0.692,-6.0247,-7.5606,0.13352,0.015054,0.018051,-0.00084369,10.051,-51.561,-88.901
0.791,-5.9826,-7.597,0.10418,0.017185,0.017007,-0.0029646,10.047,-51.59,-88.893
0.89,-5.9988,-7.5873,0.11047,0.016112,0.016958,0.0012919,10.039,-51.633,-88.891
0.988,-6.0182,-7.5882,0.10568,0.017172,0.014879,-0.0029763,10.041,-51.65,-88.892
1.087,-6.0103,-7.5868,0.10643,0.018254,0.016018,-0.0093597,10.041,-51.671,-88.894
1.186,-5.9623,-7.6346,0.12679,0.012947,0.020343,-0.013646,10.026,-51.736,-88.901
1.285,-5.9353,-7.64,0.10808,0.015069,0.019207,-0.0083021,10.025,-51.839,-88.88
1.384,-5.8886,-7.7569,0.093555,0.01183,0.017853,0.016191,10.025,-51.949,-88.873
1.483,-6.0236,-7.6052,0.14849,0.0074747,0.0090161,0.043834,10.04,-52.005,-88.863
1.581,-6.1979,-7.4331,0.061223,4.3676e-05,0.0064358,-0.0042302,10.13,-51.79,-88.822
1.68,-6.0431,-7.5756,0.13337,0.021592,0.026353,-0.072194,10.198,-51.606,-88.853
1.779,-5.5521,-7.9392,0.12589,0.043995,0.04218,0.019789,10.21,-51.843,-88.832
1.878,-5.2509,-8.2001,0.16765,0.027525,0.015707,0.27438,10.05,-52.12,-88.833
1.977,-5.5636,-7.9557,0.079784,0.032457,0.012721,0.60393,9.8874,-51.383,-88.893
2.076,-6.1495,-7.5563,0.092358,0.070721,0.049059,0.92863,9.7213,-49.84,-89.049
2.175,-6.9084,-6.79,0.16885,0.10645,0.016353,1.2444,9.2996,-45.984,-89.274
2.273,-8.0366,-5.4838,0.065115,0.10619,0.013847,1.4491,8.6302,-40.17,-89.648
2.372,-8.8285,-4.188,-0.018262,0.18532,0.061044,1.5716,8.0289,-32.988,-90.023
2.471,-9.1821,-2.943,0.34294,0.20914,-0.018301,1.7889,7.3653,-24.994,-90.273
2.57,-9.2192,-2.0154,0.53349,0.18325,-0.0048486,2.0874,6.3804,-16.27,-90.513
2.669,-9.8938,0.54756,-0.3365,0.1996,-0.068151,2.3868,5.5405,-6.3365,-90.889
2.768,-9.8462,2.551,-0.052092,0.16284,-0.057555,2.8345,4.919,5.1108,-91.283
2.866,-7.3121,6.1983,-0.32078,0.18364,-0.098098,3.0989,4.2492,18.305,-91.579
2.965,-5.6225,7.9543,0.36958,0.14484,-0.12864,3.2573,3.8241,33.87,-91.87
3.064,-2.163,9.3602,-0.3847,0.092636,-0.10747,3.2794,3.3387,50.393,-92.253
3.163,1.2294,10.209,-0.025896,0.081855,-0.13952,3.2055,3.324,67.696,-93.015
3.262,4.2423,8.4194,-0.45445,0.0040192,-0.16248,3.015,10.853,85.25,-101.17
3.361,6.8135,7.1583,0.59322,-0.063734,-0.089679,2.9092,176.36,76.98,92.803
3.459,7.5365,6.3946,0.43859,0.20264,0.013438,2.9354,177.84,60.533,90.683
3.558,8.7885,3.9889,-0.051044,0.17915,0.025433,3.0046,177.67,45.335,89.969
3.657,10.265,1.2821,-0.09625,0.19637,-0.058767,3.3594,178.53,29.765,89.76
3.756,10.848,-1.4033,0.027842,0.3084,-0.11517,4.0266,179.31,13.844,89.525
3.855,8.0356,-6.5389,-0.39727,-0.023448,-0.060918,4.2001,-179.95,-3.5164,89.253
3.954,5.3303,-8.9343,0.23606,0.17225,-0.15454,4.3227,-178.75,-23.665,88.992
4.052,0.26704,-9.6611,0.25477,0.10792,-0.034569,4.2738,-178.59,-46.075,88.354
4.151,-2.8773,-9.1523,-0.21121,0.046199,-0.11905,4.5853,-179.72,-68.817,86.853
4.25,-7.8837,-5.7198,-0.16092,0.17441,0.03041,4.3376,28.682,-87.913,-64.9
4.349,-9.2521,-1.5527,0.34982,0.19517,0.060022,4.0863,5.0109,-64.567,-88.969
4.448,-9.7001,2.0665,0.29504,0.26299,-0.077207,3.8056,3.7911,-40.319,-90.44
4.547,-9.5338,4.1646,-0.016017,0.051053,-0.097321,4.1994,2.7762,-17.502,-90.971
4.646,-5.4597,7.631,-0.19924,0.097805,-0.018016,3.8803,1.8306,4.1109,-91.382
4.744,-3.2,8.8718,-0.13487,0.036455,0.14187,4.2209,1.0045,24.692,-91.842
4.843,0.36,9.2576,0.067809,0.26861,0.079771,4.3664,1.5317,45.872,-92.705
4.942,4.9114,7.9854,0.22079,0.39274,0.13652,4.3923,3.4249,67.292,-94.506
5.041,9.219,4.9423,-0.18666,0.19761,0.014532,4.4988,95.086,88.63,174.71
5.14,9.6983,0.96938,0.032482,0.19266,-0.079217,4.5963,-179.67,66.338,90.268
5.239,10.286,-3.5168,-0.2865,-0.12171,-0.022173,4.4501,-177.21,42.222,88.805
5.338,6.8933,-7.2313,0.2181,0.018719,0.034348,4.2297,-176.54,17.665,88.609
5.436,3.3756,-9.1779,0.27483,0.048217,0.10899,4.0352,-176.48,-6.8789,88.246
5.535,-0.63049,-9.6301,0.29279,0.097555,-0.042493,3.9676,-177.35,-31.043,87.61
5.634,-2.8472,-8.781,-0.070204,0.060505,-0.13592,4.1342,-178.93,-54.293,86.579
5.733,-6.8926,-6.8037,0.21555,0.060928,-0.039658,4.267,176.25,-76.532,82.527
5.832,-8.9403,-3.801,-0.14924,0.25192,0.012104,4.5962,12.432,-81.326,-80.758
5.931,-8.6333,0.98226,0.58319,0.084745,-0.071948,4.7256,5.1699,-59.448,-88.389
6.029,-7.7227,6.5712,-0.313,0.29272,-0.1484,4.4859,4.0788,-36.983,-89.856
6.128,-5.2177,8.6743,0.61477,0.10704,-0.11121,4.6242,3.3282,-13.196,-90.269
6.227,-0.38275,10.38,-0.034578,0.093105,-0.1258,4.6027,2.7195,11.269,-90.538
6.326,4.7354,9.3144,0.30671,0.18248,-0.047298,4.3383,2.5025,36.746,-91.104
6.425,7.5844,6.3185,0.46209,0.10766,-0.080123,4.2576,2.0452,61.189,-91.574
6.524,9.7533,2.5655,0.35806,-0.031746,-0.056518,4.0166,4.0484,86.263,-94.424
6.622,10.822,-1.4478,0.47496,-0.11849,0.022554,3.7508,-178.54,69.387,87.796
6.721,9.2159,-5.0412,0.66462,-0.25263,0.17303,3.3143,-179.08,45.861,87.872
6.82,6.7962,-7.7747,0.648,-0.30293,0.41517,2.8428,179.99,23.218,87.938
6.919,4.379,-8.7665,1.1128,-0.17732,0.64058,2.4761,178.92,1.6429,87.841
7.018,1.5169,-9.5913,0.92672,-0.093089,0.8936,2.0378,177.34,-19.114,87.694
7.117,0.11451,-9.5171,0.8881,0.10454,1.0402,1.7491,174.8,-37.003,87.388
7.216,-1.0814,-9.3371,1.2551,0.2795,1.0096,1.6757,170.99,-52.957,86.684
7.314,-2.4878,-9.263,0.87987,0.39871,0.94091,1.6102,166.65,-66.744,86.131
7.413,-3.8431,-8.5544,0.67674,0.54049,0.88751,1.5033,161.43,-78.323,85.758
7.512,-5.1375,-8.2914,1.0008,0.60233,0.71299,1.5765,160.63,-87.914,90.452
7.611,-5.969,-7.7876,0.71102,0.63718,0.49648,1.6961,-32.794,-82.92,-97.575
7.71,-7.3996,-6.1531,0.54442,0.64404,0.38635,1.6508,-36.817,-74.051,-96.427
7.809,-8.4275,-4.4728,0.20926,0.72206,0.37002,1.4871,-41.493,-65.528,-96.093
7.908,-9.0686,-3.262,0.51792,0.73895,0.1885,1.6217,-45.896,-56.952,-95.84
8.006,-8.7486,-2.3127,0.51283,0.68677,0.054229,1.7389,-49.611,-47.781,-95.639
8.105,-9.6434,-1.0281,0.29114,0.78848,-0.029716,1.9643,-52.654,-38.199,-95.357
8.204,-9.3157,-0.30896,0.8405,0.64689,-0.21074,2.5337,-55.686,-28.694,-94.817
8.303,-9.6236,1.7466,0.54038,0.38005,-0.29935,2.9736,-59.194,-20.406,-94.759
8.402,-7.806,6.0393,-0.068557,0.39571,-0.36087,2.9542,-62.221,-11.283,-94.994
8.501,-5.7301,7.0997,0.73871,0.1789,-0.34544,3.1402,-65.009,-1.2916,-95.327
8.6,-3.4334,9.4235,-0.14999,0.10191,-0.34348,3.2601,-67.762,10.301,-95.713
8.698,-0.33485,10.317,0.51882,0.070789,-0.19039,3.2788,-69.313,24.806,-96.595
8.797,3.2008,10.061,0.22004,0.117,-0.17546,3.0905,-69.419,40.67,-98.341
8.896,6.2116,8.1395,0.46793,-0.025702,-0.1167,3.1077,-67.912,56.819,-101.66
8.995,8.089,6.3398,0.40042,-0.049869,-0.056793,3.0876,-58.381,73.512,-112.31
9.094,9.4684,3.3723,0.64875,-0.015373,0.00049615,3.0925,32.023,83.783,156.47
9.193,10.306,0.30971,0.57765,-0.033395,0.018785,3.0807,84.527,69.285,103.53
9.292,9.789,-2.3157,0.64246,-0.015078,0.04744,3.0821,91.582,52.656,96.26
9.39,8.2984,-5.3401,0.45086,-0.023499,0.04763,2.9818,93.537,36.012,93.94
9.489,6.4019,-7.4883,0.5552,-0.0083796,0.070329,2.9489,94.388,19.367,92.975
9.588,4.0072,-8.7755,0.57031,0.039741,0.077039,2.9099,94.994,2.7437,92.513
9.687,1.4358,-10.318,0.72569,0.065051,0.013864,2.849,95.534,-13.79,92.548
9.786,-1.5551,-9.4183,0.43275,0.057483,-0.012084,2.7976,96.292,-30.334,92.936
9.885,-4.2946,-8.5661,0.45999,0.073493,-0.030164,2.7059,97.312,-46.504,93.735
9.983,-6.2654,-7.1181,0.38006,0.054292,-0.048013,2.6044,99.271,-62.31,95.6
10.082,-8.2758,-5.0239,0.37602,0.045926,-0.048286,2.455,107.08,-77.813,103.32
10.181,-9.1891,-2.7448,0.11915,0.0088534,-0.034348,2.282,-125.61,-85.306,-129.62
10.28,-9.5373,-0.29519,-0.00014969,0.005961,-0.024293,2.0698,-95.459,-70.984,-99.961
10.379,-9.7145,1.7747,0.0010478,0.054563,0.012174,1.7729,-91.341,-56.29,-96.476
10.478,-8.8529,4.2342,0.14954,0.062315,-0.030168,1.3184,-89.52,-41.917,-95.376
10.577,-8.1902,5.3934,0.02874,0.045738,-0.022197,0.9323,-88.257,-28.081,-94.867
10.675,-7.5163,6.3646,0.070952,0.060942,-0.029701,0.67218,-87.092,-15.059,-94.823
10.774,-7.519,6.4414,0.061672,0.053622,-0.026191,0.56123,-85.987,-3.0916,-94.909
10.873,-7.211,6.7173,-0.069007,0.072918,-0.029439,0.47393,-85.042,7.7421,-95.123
10.972,-6.9825,6.9635,-0.031135,0.052755,-0.024217,0.40021,-84.368,16.94,-95.397
11.071,-6.7508,7.1887,0.081131,0.042196,-0.020051,0.32336,-83.888,23.934,-95.787
11.17,-6.5073,7.4773,0.011975,0.032724,-0.0107,0.25722,-83.475,28.932,-96.18
11.268,-6.2977,7.6433,-0.10329,0.026392,-0.0029574,0.23481,-83.821,34.466,-95.478
11.367,-6.2019,7.718,-0.066013,0.036041,-0.0055801,0.18582,-85.16,40.76,-93.475
11.466,-5.9629,7.9088,0.0097298,0.026496,0.0020682,0.17192,-85.588,43.742,-93.267
11.565,-5.9149,7.8651,-0.0014969,0.023309,0.0042326,0.16977,-86.076,46.357,-92.92
11.664,-5.7871,7.995,-0.067809,0.047883,0.0063852,0.16146,-86.398,48.286,-92.78
11.763,-5.5777,8.1642,-0.060624,0.033052,0.022562,0.14756,-87.078,50.175,-92.09
11.862,-5.3325,8.3119,-0.027393,0.0054368,0.031,0.073796,-87.508,51.459,-91.663
11.96,-5.2351,8.4107,-0.12514,0.010799,0.016211,-0.023283,-87.795,52.713,-91.441
12.059,-5.2819,8.2978,0.0479,0.0087461,0.020024,-0.073401,-88.113,53.588,-91.169
12.158,-5.3613,8.294,-0.050146,0.01534,0.033879,-0.16392,-88.26,54.432,-91.076
12.257,-5.2515,8.4317,-0.13427,0.017671,0.036789,-0.31531,-88.367,55.304,-91.032
12.356,-5.393,8.3956,-0.085921,-0.0045718,0.034551,-0.4744,-88.501,56.179,-90.905
12.455,-5.5814,8.1675,0.011676,-0.014975,0.046248,-0.64505,-88.568,57.015,-90.807
12.553,-5.8501,7.9202,-0.064216,-0.022088,0.057799,-0.89139,-88.553,57.428,-90.784
12.652,-6.3237,7.618,-0.020358,-0.022812,0.062168,-1.1612,-88.573,57.235,-90.737
12.751,-6.8221,7.0923,-0.08158,-0.080085,0.073959,-1.4143,-88.49,56.812,-90.778
12.85,-7.8932,6.0051,0.034728,-0.048973,0.05938,-1.6221,-88.537,56.01,-90.662
12.949,-8.5254,4.8706,0.023052,0.037671,0.043897,-1.8571,-88.549,54.484,-90.551
13.048,-9.1017,3.3409,-0.1455,0.077248,0.041582,-1.9389,-88.428,52.055,-90.494
13.146,-9.5618,0.93705,0.014969,0.084988,0.069213,-2.0251,-88.178,48.697,-90.522
13.245,-9.5545,-0.78841,-0.20178,0.086402,0.11066,-2.108,-87.919,43.995,-90.49
13.344,-9.2124,-2.6419,-0.13397,0.075007,0.16415,-2.1292,-87.587,37.863,-90.463
13.443,-8.292,-4.8361,-0.10793,0.053514,0.14678,-2.0953,-87.037,30.503,-90.461
13.542,-7.0333,-6.5968,0.33201,0.017297,0.16365,-2.0731,-86.62,22.056,-90.397
13.641,-5.4268,-7.9049,0.15732,0.0013079,0.17192,-2.0498,-86.727,12.363,-90.21
13.74,-3.6759,-8.9149,0.4558,-0.0096787,0.13285,-1.9839,-87.105,1.9495,-90.045
13.838,-1.8769,-9.324,0.39682,-0.030098,0.11153,-1.9757,-87.426,-8.7581,-89.854
13.937,0.028591,-9.6611,0.42227,-0.077048,0.12385,-1.927,-87.681,-19.947,-89.446
14.036,2.0367,-9.4859,0.29938,-0.029423,0.06162,-1.8971,-87.843,-31.403,-88.855
14.135,3.8647,-9.0101,0.53499,0.015154,0.029956,-1.8425,-87.765,-42.731,-88.09
14.234,5.5563,-8.1685,0.46089,0.0065181,0.024024,-1.7903,-87.183,-53.951,-86.921
14.333,6.9635,-7.0438,0.53903,-0.0043111,0.010522,-1.7276,-85.564,-65.014,-84.733
14.431,8.426,-5.8015,0.56972,0.022287,0.0065777,-1.673,-80.922,-75.766,-79.638
14.53,8.9744,-4.2634,0.68617,0.071307,0.0036381,-1.6193,-51.788,-85.673,-50.187
14.629,9.3362,-2.6318,0.53858,0.095828,0.0092766,-1.5647,65.901,-82.112,67.732
14.728,9.6618,-1.3036,0.58917,0.11732,0.042705,-1.5195,77.607,-72.03,79.613
14.827,9.9274,0.2181,0.47391,0.13658,0.063099,-1.452,81.007,-61.966,82.984
14.926,9.7934,1.7229,0.57645,0.11959,0.092018,-1.3763,82.774,-52.125,84.559
15.025,9.5855,3.0864,0.46883,0.15055,0.12105,-1.2351,83.911,-42.556,85.413
15.123,8.3398,4.4986,1.6121,0.14712,0.10177,-1.1372,84.746,-33.274,85.915
15.222,8.2785,6.1268,0.38575,0.11288,0.1101,-1.0265,85.525,-24.268,86.244
15.321,7.6129,6.336,0.57825,0.061495,0.10678,-0.91602,86.324,-15.552,86.499
15.42,6.8343,7.1246,0.43664,0.037658,0.070353,-0.80231,87.247,-7.1603,86.704
15.519,6.1082,7.6289,0.40491,0.0063594,0.031029,-0.71107,88.262,0.99873,86.861
15.618,5.5963,8.1116,0.32677,-0.028249,-0.020352,-0.59007,89.297,8.8476,87.008
15.716,4.9909,8.6161,0.62869,-0.048984,-0.066786,-0.44226,90.301,16.315,87.127
15.815,4.3387,8.8854,0.31599,-0.059974,-0.090881,-0.29639,91.382,23.263,87.233
15.914,3.9554,9.075,0.30102,-0.051778,-0.1173,-0.1397,92.392,29.981,87.195
16.013,3.6091,9.2086,0.21046,-0.046704,-0.13091,0.014896,93.297,35.806,87.17
