Time,Acceleration X,Acceleration Y,Acceleration Z,Angular Velocity X,Angular Velocity Y,Angular Velocity Z,Yaw,Pitch,Roll,'16-Nov-2018 17:44:44.746'
0,9.7795,-0.71431,0.77374,-0.026626,0.018689,0.044672,-172.13,-3.84,85.373,
0.098,9.7856,-0.75323,0.79275,-0.01912,0.022999,0.038359,-172.35,-4.036,85.368,
0.197,9.7881,-0.7926,0.79305,-0.0095352,0.017753,0.029878,-172.52,-4.2179,85.374,
0.296,9.7337,-0.75817,0.82029,-0.0052315,0.020075,0.012863,-172.64,-4.3666,85.365,
0.395,9.7344,-0.78497,0.79859,0.013974,0.018936,0.014082,-172.73,-4.426,85.369,
0.494,9.7655,-0.81506,0.77928,0.019307,0.017881,0.011987,-172.74,-4.4679,85.367,
0.593,9.7618,-0.76701,0.7914,0.029964,0.01267,0.00031638,-172.71,-4.5067,85.372,
0.691,9.7576,-0.74934,0.8173,0.027865,0.018036,-0.0028709,-172.65,-4.5152,85.366,
0.79,9.7504,-0.75024,0.78018,0.027862,0.01801,-0.00073823,-172.58,-4.4749,85.373,
0.889,9.773,-0.75533,0.79709,0.025708,0.015824,0.0045641,-172.51,-4.4277,85.376,
0.988,9.7545,-0.73782,0.81251,0.022508,0.016859,0.0077426,-172.45,-4.4204,85.374,
1.087,9.7619,-0.82299,0.77,0.023569,0.015791,0.0077455,-172.41,-4.4175,85.365,
1.186,9.8459,-0.89409,0.56283,0.031063,0.017986,0.00035447,-172.37,-4.4367,85.362,
1.284,9.7621,-0.74949,0.89828,0.00010812,0.025091,0.036396,-172.31,-4.4759,85.384,
1.383,9.754,-1.1138,0.77943,0.061984,0.019557,0.037943,-172.12,-4.4762,85.384,
1.482,9.7265,-1.0469,0.82658,0.025691,0.010648,-0.0071948,-171.88,-4.7112,85.397,
1.581,9.7615,-0.64276,0.89454,0.0097757,0.016646,-0.058481,-171.79,-5.0081,85.377,
1.68,9.6961,-0.39398,0.85308,0.012864,0.0065117,-0.013722,-171.77,-4.8718,85.364,
1.779,9.7281,-0.80308,0.78452,0.041662,0.014212,0.045211,-171.77,-4.4904,85.366,
1.878,9.7512,-0.92523,0.78736,0.032071,0.015398,0.037673,-171.65,-4.322,85.379,
1.976,9.748,-0.89693,0.76536,0.017178,0.01794,0.0077045,-171.55,-4.5401,85.41,
2.075,9.76,-0.77389,0.79036,0.0054664,0.020276,-0.0062427,-171.49,-4.77,85.404,
2.174,9.7673,-0.75293,0.78766,0.00863,0.01488,-0.000914,-171.51,-4.8388,85.397,
2.273,9.7579,-0.79021,0.81925,0.015016,0.013678,0.0087298,-171.56,-4.7564,85.395,
2.372,9.7557,-0.82957,0.79649,0.013964,0.016834,0.011938,-171.6,-4.7018,85.396,
2.471,9.7488,-0.83871,0.78991,0.011851,0.020059,0.009805,-171.61,-4.6881,85.392,
2.569,9.7605,-0.83122,0.77763,0.013986,0.019054,0.004485,-171.61,-4.7327,85.398,
2.668,9.7658,-0.79425,0.79395,0.01504,0.016922,0.0044821,-171.61,-4.7775,85.405,
2.767,9.7554,-0.80233,0.77269,0.019305,0.015858,0.0034451,-171.62,-4.7899,85.411,
2.866,9.7693,-0.78661,0.7715,0.02144,0.015851,0.0034626,-171.61,-4.7791,85.411,
2.965,9.7537,-0.79545,0.74365,0.019304,0.015844,0.0045114,-171.58,-4.7641,85.396,
3.064,9.7458,-0.80772,0.78631,0.017169,0.015851,0.0044938,-171.55,-4.7534,85.394,
3.162,9.7669,-0.78587,0.79919,0.012915,0.018019,0.0023377,-171.52,-4.7287,85.398,
3.261,9.7651,-0.78631,0.80039,0.015047,0.017986,0.004488,-171.49,-4.7253,85.402,
3.36,9.7587,-0.8191,0.79155,0.012909,0.017967,0.006603,-171.48,-4.7095,85.399,
3.459,9.7694,-0.81491,0.80083,0.010767,0.016897,0.0076459,-171.48,-4.6936,85.398,
3.558,9.7558,-0.81236,0.78916,0.010768,0.01691,0.0065796,-171.47,-4.6882,85.397,
3.657,9.739,-0.79874,0.78377,0.010768,0.01691,0.0065796,-171.48,-4.6982,85.406,
3.756,9.7548,-0.82957,0.78407,0.012902,0.01689,0.0076635,-171.51,-4.7004,85.408,
3.854,9.7618,-0.79934,0.77239,0.013969,0.016887,0.0076723,-171.53,-4.712,85.408,
3.953,9.7482,-0.83182,0.76865,0.015047,0.017986,0.004488,-171.55,-4.7176,85.409,
4.052,9.7564,-0.82119,0.77838,0.019291,0.013717,0.0044997,-171.57,-4.7287,85.411,
4.151,9.76,-0.80727,0.77659,0.019296,0.014767,0.0055719,-171.57,-4.7381,85.408,
4.25,9.7593,-0.80188,0.7917,0.018249,0.017976,0.0045143,-171.57,-4.742,85.404,
4.349,9.7823,-0.80128,0.80488,0.017182,0.017979,0.0045055,-171.55,-4.7437,85.399,
4.447,9.7715,-0.79395,0.80203,0.013978,0.017977,0.0055455,-171.53,-4.7421,85.395,
4.546,9.7676,-0.83721,0.7941,0.01077,0.016923,0.0055133,-171.5,-4.7312,85.389,
4.645,9.7573,-0.82583,0.79784,0.0075711,0.017971,0.0076254,-171.49,-4.7218,85.394,
4.744,9.7849,-0.78796,0.76266,0.0022355,0.018002,0.0065152,-171.49,-4.7184,85.396,
4.843,9.7527,-0.74949,0.81416,0.0065125,0.020063,0.010827,-171.51,-4.7326,85.389,
4.942,9.7522,-0.84709,0.77958,0.0043553,0.01885,0.0236,-171.55,-4.7302,85.385,
5.04,9.7564,-0.8658,0.78766,-0.0052392,0.018998,0.013924,-171.61,-4.7255,85.396,
5.139,9.7399,-0.81116,0.81012,-0.0063042,0.020027,0.01712,-171.67,-4.7129,85.382,
5.238,9.756,-0.83047,0.7709,-0.0063263,0.017807,0.024572,-171.74,-4.7987,85.397,
5.337,9.7578,-0.89424,0.78572,-0.0010013,0.017673,0.034213,-171.83,-4.8895,85.407,
5.436,9.7738,-0.8908,0.83616,5.38E-05,0.013544,0.023535,-171.95,-4.9203,85.394,
5.535,9.7034,-0.9387,0.80039,0.011839,0.02094,0.024739,-172.07,-4.9798,85.394,
5.634,9.7393,-0.98046,0.76371,0.016089,0.016736,0.01942,-172.19,-5.0841,85.388,
5.732,9.7254,-0.99603,0.78003,0.020371,0.015841,0.0045202,-172.29,-5.2382,85.399,
5.831,9.7449,-0.95172,0.80592,0.032114,0.014817,-0.001787,-172.36,-5.3463,85.39,
5.93,9.7405,-0.94948,0.77494,0.036389,0.013857,-0.011355,-172.38,-5.4644,85.391,
6.029,9.7631,-0.90831,0.79305,0.040665,0.014907,-0.011314,-172.37,-5.5534,85.398,
6.128,9.7313,-0.89858,0.78212,0.043848,0.012704,-0.0059673,-172.33,-5.5823,85.391,
6.227,9.7471,-0.91759,0.77763,0.039587,0.014806,-0.0027918,-172.23,-5.5484,85.383,
6.325,9.7599,-0.88436,0.78646,0.027843,0.014818,-0.00075581,-172.1,-5.4656,85.39,
6.424,9.7489,-0.86595,0.78063,0.021462,0.019068,0.0013476,-171.95,-5.3694,85.384,
6.523,9.7422,-0.87882,0.77374,0.016113,0.01797,0.0055631,-171.8,-5.3019,85.377,
6.622,9.7347,-0.94618,0.79515,0.0075594,0.016855,0.011885,-171.66,-5.2636,85.386,
6.721,9.7486,-1.0095,0.80518,0.0075485,0.012743,0.00013183,-171.58,-5.2362,85.387,
6.82,9.8,-0.89798,0.68542,0.024687,0.018281,-0.022091,-171.54,-5.2089,85.389,
6.919,9.7185,-0.74186,0.74814,0.033173,0.014736,0.0046198,-171.54,-5.1953,85.391,
7.017,9.7495,-0.5278,0.87029,0.025624,0.011992,0.056797,-171.56,-5.2362,85.382,
7.116,9.8125,-0.68632,0.78407,0.0030903,0.013913,0.16646,-171.57,-5.2941,85.392,
7.215,9.8497,-0.42137,0.73228,-0.024902,0.018658,0.39447,-171.52,-5.1636,85.405,
7.314,9.7497,-0.95771,0.92582,-0.066708,0.034074,0.62349,-171.44,-5.017,85.381,
7.413,9.7214,-1.5226,0.8197,-0.094676,0.04707,0.87287,-171.43,-4.9466,85.341,
7.512,9.5099,-1.9894,0.92852,-0.042735,0.054375,1.2189,-171.48,-5.3554,85.338,
7.61,9.2707,-3.4678,0.80158,0.00061199,0.053158,1.5679,-171.75,-6.2811,85.311,
7.709,8.5388,-5.0236,0.74156,-0.038037,0.076136,1.8738,-172.33,-8.5715,85.27,
7.808,7.9088,-6.042,0.84185,-0.042533,0.11899,2.2856,-173.2,-12.348,85.222,
7.907,6.5655,-7.6075,1.0474,-0.030965,0.20135,2.8556,-174.15,-17.637,85.142,
8.006,2.8191,-9.8455,0.98435,0.076277,0.1464,3.0578,-175.03,-24.783,85.003,
8.105,-0.22962,-9.894,0.76446,0.023193,0.20346,3.1046,-176.11,-33.506,84.685,
8.203,-2.4088,-9.3611,0.90547,0.0808,0.067324,3.3453,-177.75,-43.878,84.007,
8.302,-5.9534,-7.7281,0.58304,0.081308,-0.012258,3.4142,179.36,-56.609,82.427,
8.401,-8.0859,-4.4887,0.60205,0.064901,-0.07817,3.4137,173.02,-71.96,77.55,
8.5,-9.6543,-1.5548,0.32782,-0.052396,-0.070636,3.3498,113.91,-86.336,19.612,
8.599,-10.344,0.99408,0.49188,-0.011027,-0.11738,3.3329,15.176,-74.117,-77.805,
8.698,-8.5517,4.5778,0.11616,0.053727,-0.032521,3.1643,7.8815,-56.519,-84.422,
8.796,-7.0915,6.3487,0.11885,0.11724,-0.084006,3.3554,5.274,-38.177,-86.689,
8.895,-5.5895,8.6191,0.31075,0.10236,-0.14881,3.8722,4.0368,-19.841,-87.861,
8.994,-0.86924,9.6162,0.20058,0.18832,-0.19307,4.0763,3.6778,-1.6545,-88.587,
9.093,3.0715,10.145,0.10014,0.31581,-0.072769,4.2988,3.4887,16.092,-88.983,
9.192,6.4155,7.6153,1.2548,0.048092,-0.010838,4.4366,3.0329,33.265,-89.159,
9.291,10.058,3.603,0.78138,0.077366,-0.079026,4.6103,1.9554,50.905,-88.899,
9.389,10.898,-1.3479,1.1197,0.12758,-0.076747,4.5851,-0.090936,70.562,-87.838,
9.488,7.9456,-5.1942,0.76626,0.11404,-0.059393,4.3878,-150.47,87.356,61.504,
9.587,5.7775,-8.2722,0.79395,0.1182,-0.10554,4.2447,-173.34,64.468,83.688,
9.686,1.5044,-9.309,0.50505,0.027406,-0.13391,4.1521,-176.05,41.285,85.324,
9.785,-1.7422,-8.8304,0.60998,-0.002285,-0.099844,4.1584,-177.72,16.849,85.831,
9.884,-5.0536,-8.7098,1.0484,0.10923,-0.13674,4.4492,-179.14,-7.9977,85.483,
9.983,-7.8786,-5.9031,1.2195,-0.018996,-0.25029,4.8922,179.31,-32.246,84.556,
10.081,-9.1062,-1.1117,0.094154,-0.1234,-0.15583,5.199,176.28,-55.445,81.893,
10.18,-8.2395,4.9522,-0.37751,-0.0070531,-0.037629,4.901,162.04,-77.951,67.863,
10.279,-4.6559,7.6635,0.035476,-0.03038,0.020043,5.0632,25.472,-77.99,-68.553,
10.378,0.21211,10.148,0.12574,0.39869,0.119,4.6919,11.224,-56.133,-82.677,
10.477,6.3649,8.6824,0.4558,0.16046,-0.014375,4.1752,7.6506,-32.09,-86.198,
10.576,8.542,5.8991,0.41628,-0.12888,-0.063181,3.9774,6.5175,-5.7999,-87.578,
10.674,8.3927,3.8882,0.3103,-0.091343,-0.013538,4.0846,6.0326,21.678,-88.418,
10.773,10.505,1.3229,1.44,0.16796,0.053955,4.5019,5.1963,48.071,-88.25,
10.872,8.8917,-3.6535,-0.83945,0.013761,0.14321,4.4649,1.4838,74.737,-84.865,
10.971,5.5364,-7.7426,0.010478,0.005341,0.15041,4.3998,-158.42,79.404,74.949,
11.07,2.473,-9.181,0.74126,0.044906,0.15099,4.3426,-167.76,56.698,83.665,
11.169,-1.4598,-10.143,0.73901,0.082535,0.0028688,4.2642,-171.12,35.306,85.573,
11.267,-5.682,-8.2004,0.62944,0.1477,-0.0068595,4.173,-173.34,13.686,86.183,
11.366,-8.2422,-5.0417,0.72809,0.15607,-0.03857,4.1537,-174.78,-9.6945,86.379,
11.465,-8.7932,-1.2274,0.35102,0.10524,-0.13898,4.1986,-175.77,-34.047,86.21,
11.564,-9.2446,2.8683,0.11706,0.11943,-0.10789,4.089,-178.75,-57.777,84.621,
11.663,-7.7549,6.7435,0.13756,0.14934,-0.10377,4.0925,168.29,-80.93,72.922,
11.762,-4.5323,9.155,0.10418,0.16666,-0.064433,4.0907,14.106,-74.776,-80.394,
11.86,-0.36419,10.201,0.041464,0.22078,0.043908,4.0054,7.7129,-52.016,-86.534,
11.959,3.7108,9.4602,0.044308,0.32266,0.092271,3.8529,5.2887,-28.861,-88.358,
12.058,7.397,7.9747,0.43155,0.34988,0.18355,3.8643,4.1518,-5.7924,-89.046,
12.157,9.2154,4.567,-0.20941,0.51583,0.079399,3.8118,3.3852,16.933,-89.595,
12.256,10.391,1.1763,0.15568,0.70984,-0.14151,3.8154,2.5477,39.172,-89.803,
12.355,10.359,-2.9195,-0.010927,0.7456,-0.4417,3.6434,1.4053,61.444,-89.487,
12.454,8.6718,-5.7726,-0.083077,0.69083,-0.85418,3.6279,-5.1947,83.45,-83.406,
12.552,5.7525,-8.222,-0.29758,0.38262,-1.1609,3.6429,-171,74.793,82.557,
12.651,2.4414,-9.4009,-1.1914,-0.13341,-1.264,3.508,-173.21,53.716,85.226,
12.75,-2.0594,-10.172,-1.0852,-0.56142,-1.1269,3.278,-173.22,32.757,86.06,
12.849,-4.8119,-8.1935,-0.78871,-0.70254,-0.84831,3.0715,-172.03,12.05,86.068,
12.948,-7.3118,-6.0814,-0.78542,-0.82183,-0.50001,2.8122,-169.92,-8.5604,85.484,
13.047,-8.4339,-3.305,-0.97642,-0.87463,-0.2515,2.6905,-167.57,-28.681,84.267,
13.146,-9.307,-1.3074,-0.59232,-0.77059,-0.0021851,2.6362,-165.31,-48.941,82.047,
13.244,-8.4671,0.78871,-0.24863,-0.7556,0.18095,2.6224,-166.84,-68.77,74.935,
13.343,-9.1196,3.3366,-0.91295,-0.55411,0.32747,2.6835,130.1,-83.939,5.9055,
13.442,-8.1164,4.7586,-0.66237,-0.38616,0.44574,2.9745,59.66,-70.367,-70.334,
13.541,-6.8216,6.4323,-0.51643,-0.16558,0.45832,3.3678,56.544,-52.623,-78.941,
13.64,-3.982,8.9354,-1.0535,0.12961,0.20991,3.419,58.288,-36.086,-81.782,
13.739,-0.4317,9.8706,0.049846,0.24765,0.3479,3.5903,60.947,-20.689,-83.08,
13.838,3.0282,9.9521,-0.46808,0.32918,0.22904,3.5434,64.166,-5.8191,-83.757,
13.936,6.6841,8.279,0.75039,0.26454,0.13327,3.5605,67.023,8.6523,-83.753,
14.035,9.2371,5.6873,0.34354,0.31089,0.02795,3.5475,69.222,22.957,-83.162,
14.134,10.37,1.9855,0.61507,0.31388,-0.021217,3.4779,70.215,37.957,-81.763,
14.233,9.8028,-1.4104,0.6254,0.23227,-0.11786,3.3967,69.065,54.435,-78.697,
14.332,8.6275,-5.0724,0.66522,0.15452,-0.11889,3.2404,59.181,72.29,-67.65,
14.431,6.8939,-7.2485,0.1934,0.10015,-0.13411,3.1066,-25.732,82.387,17.271,
14.529,4.3773,-8.7554,0.61477,0.091679,-0.14843,2.9752,-75.948,66.858,68.153,
14.628,1.4059,-9.8817,0.65189,0.060903,-0.14959,2.8171,-83.911,48.184,76.069,
14.727,-1.6972,-9.6142,0.32393,-0.035038,-0.15707,2.6702,-87.484,29.068,79.153,
14.826,-4.1449,-8.811,0.49652,0.0081397,-0.11143,2.4949,-89.573,9.8372,80.152,
14.925,-6.5926,-7.0705,0.50191,0.018057,-0.090395,2.3383,-91.139,-9.2719,80.347,
15.024,-7.5825,-5.5885,0.27198,0.030287,-0.041584,2.1723,-92.909,-27.687,79.352,
15.122,-8.6905,-3.5222,0.19998,0.037964,-0.033594,2.0391,-95.564,-45.801,77.537,
15.221,-9.4626,-1.6177,0.30731,0.031607,-0.05213,1.9035,-101.75,-62.622,71.873,
15.32,-9.9092,0.29758,0.25118,0.027689,-0.02264,1.7554,-123.44,-78.141,50.481,
15.419,-9.6479,1.9436,0.15852,0.034271,-0.02492,1.5923,142.98,-80.277,-42.967,
15.518,-9.222,3.6008,0.13188,0.046148,-0.027635,1.4633,114.29,-67.572,-71.591,
15.617,-8.398,4.8703,0.019909,0.051633,-0.029213,1.3301,107.49,-54.146,-78.39,
15.716,-7.6753,6.0679,0.054636,0.045534,-0.010173,1.167,104.15,-41.353,-81.495,
15.814,-6.8665,6.9792,0.074695,0.02017,0.00040533,1.0047,102.16,-29.169,-83.14,
15.913,-6.1464,7.6916,0.079185,0.024585,-0.0031926,0.86291,100.72,-17.826,-83.996,
16.012,-5.5252,8.2164,0.18891,0.019456,0.0078747,0.74243,99.654,-7.0306,-84.575,
16.111,-4.7873,8.5894,0.098046,0.02074,0.018001,0.61026,98.721,2.9313,-84.886,
16.21,-4.0664,8.9879,0.010778,0.037946,0.0021814,0.42049,97.838,12.088,-84.985,
16.309,-3.5491,9.2624,0.080682,0.025349,0.010303,0.2818,96.944,20.48,-84.962,
16.408,-3.3415,9.3048,0.17244,0.012692,0.017837,0.19109,96.018,28.203,-84.783,
16.506,-3.3243,9.2856,0.18127,0.011747,0.019041,0.092979,95.003,35.216,-84.448,
16.605,-3.168,9.4011,0.11017,0.016206,0.032904,0.0024461,94.029,41.393,-83.978,
16.704,-2.9875,9.4563,0.10628,0.0099014,0.040907,-0.041285,93.104,46.731,-83.452,
16.803,-3.2463,9.3365,0.13951,0.01836,0.017062,-0.094666,92.159,51.364,-82.839,
16.902,-3.196,9.3984,0.11421,0.019327,-0.0069556,-0.13211,91.214,55.382,-82.14,
17.001,-3.4214,9.2262,0.21376,-0.0015308,0.073013,-0.14038,90.272,58.752,-81.335,
17.099,-3.5767,9.1768,0.26076,-0.016096,0.12083,-0.21809,89.335,61.182,-80.56,
17.198,-3.4672,9.426,-0.071402,-0.035927,0.17336,-0.33207,89.952,66.095,-81.453,
17.297,-3.7078,9.2136,-0.0013472,-0.10056,0.24134,-0.39302,91.353,69.051,-83.042,
17.396,-4.1434,8.996,0.12185,-0.15237,0.31544,-0.4357,92.327,70.365,-84.142,
17.495,-4.5425,8.7673,0.045056,-0.22118,0.41433,-0.41227,93.357,70.963,-85.184,
17.594,-5.1159,8.3314,0.077239,-0.31242,0.51724,-0.36447,94.055,70.86,-85.826,
17.693,-5.4702,8.1817,0.05793,-0.37934,0.57473,-0.34978,94.496,70.571,-86.174,
17.791,-5.6493,8.1181,0.12274,-0.41665,0.58331,-0.34577,94.804,69.959,-86.54,
17.89,-5.8412,7.9489,0.13966,-0.41683,0.55256,-0.35447,95.056,69.106,-86.842,
17.989,-6.0825,7.7431,0.20732,-0.42762,0.52742,-0.38456,95.956,68.33,-87.399,
18.088,-6.3812,7.516,0.22738,-0.44269,0.49814,-0.42217,96.94,66.96,-87.765,
18.187,-6.5628,7.3777,0.25537,-0.45564,0.47383,-0.432,98.114,65.128,-87.948,
18.286,-6.9366,6.9664,0.23696,-0.46968,0.44919,-0.41519,99.816,62.972,-88.231,
18.385,-7.3063,6.6079,0.24878,-0.48904,0.43183,-0.38239,101.9,60.615,-88.425,
18.483,-7.4476,6.3031,0.22753,-0.51479,0.41957,-0.33041,104.61,58.435,-88.565,
18.582,-7.8486,5.9084,0.20043,-0.51817,0.39985,-0.28363,107.96,56.412,-88.696,
18.681,-7.9467,5.7344,0.25836,-0.51945,0.37671,-0.21765,111.7,54.445,-88.786,
18.78,-8.1543,5.477,0.20941,-0.50685,0.35561,-0.14941,115.56,52.548,-88.837,
18.879,-8.2458,5.2758,0.24803,-0.4793,0.33253,-0.095984,119.33,50.65,-88.819,
18.978,-8.324,5.2292,0.1907,-0.45822,0.29572,-0.050156,123.07,48.702,-88.886,
19.076,-8.3344,5.0921,0.24624,-0.4274,0.28134,-0.012655,126.72,46.525,-88.935,
19.175,-8.4136,5.0936,0.20313,-0.40503,0.28183,0.028056,130.29,44.21,-88.962,
19.274,-8.3402,5.0737,0.18621,-0.3764,0.2618,0.092167,133.84,41.936,-88.994,
19.373,-8.4248,5.1686,0.12888,-0.32862,0.24118,0.20016,137.4,39.785,-89.034,
19.472,-8.3401,5.0471,0.25986,-0.21137,0.23922,0.33015,140.95,37.796,-89.045,
19.571,-8.3215,5.1301,0.30956,-0.18403,0.18996,0.43568,144.52,36.002,-89.035,
19.669,-8.1982,5.4879,0.3359,-0.13214,0.14974,0.57879,147.95,34.38,-88.899,
19.768,-7.9663,5.7482,0.37198,-0.11108,0.1298,0.72495,151.31,33.092,-88.782,
19.867,-7.6513,6.1179,0.24759,-0.083507,0.12799,0.86594,154.6,32.298,-88.755,
19.966,-7.2181,6.6845,0.20747,-0.085855,0.1209,1.0109,157.66,31.814,-88.683,
20.065,-6.5698,7.2153,0.16376,-0.073048,0.14787,1.1509,160.54,31.576,-88.612,
20.164,-5.8811,7.7542,0.09116,-0.049594,0.16454,1.261,163.33,31.525,-88.659,
20.262,-4.8326,8.4968,0.085622,-0.016527,0.17623,1.3402,165.99,31.689,-88.651,
20.361,-3.7358,9.0253,0.1431,0.017617,0.19201,1.4334,168.4,32.128,-88.594,
20.46,-2.529,9.5293,0.082478,0.051811,0.2163,1.5266,170.51,33.05,-88.478,
20.559,-1.2833,10.004,0.10658,0.08575,0.19003,1.5779,172.3,34.743,-88.505,
20.658,0.2654,9.8578,0.19834,0.12506,0.16106,1.5877,173.62,37.064,-88.463,
20.757,1.884,9.6033,0.27977,0.13994,0.15338,1.6027,174.57,40.057,-88.349,
20.855,3.5608,9.2553,0.36509,0.21256,0.17557,1.6834,175.32,43.772,-88.25,
20.954,3.9431,9.1315,0.036225,0.30326,0.17596,1.7151,175.93,48.262,-88.139,
21.053,5.8681,7.8893,0.26719,0.21637,0.1099,1.7449,176.52,53.485,-88.02,
21.152,7.4799,6.5414,0.42706,0.22261,0.08433,1.7459,177.01,59.457,-87.757,
21.251,8.458,5.2301,0.74201,0.24063,0.062928,1.7512,177.14,65.965,-87.115,
21.35,9.2508,3.6792,0.52945,0.25647,0.028157,1.7192,176.54,72.949,-85.729,
21.448,9.662,2.0227,0.71925,0.27218,-0.02688,1.6913,173.35,80.367,-81.706,
21.547,9.8218,0.17738,0.66836,0.19219,-0.021,1.6661,137.35,87.771,-44.796,
21.646,9.7537,-1.496,0.53918,0.17068,-0.050552,1.6519,18.638,82.978,74.827,
21.745,9.3346,-3.0113,0.80143,0.14718,-0.049594,1.6667,12.265,74.564,81.99,
21.844,8.8605,-4.267,0.86939,0.080004,-0.035702,1.679,10.987,66.107,83.88,
21.943,8.0847,-5.7715,0.71012,0.038477,-0.01154,1.715,11.496,57.367,84.444,
22.041,6.8903,-6.9776,0.53409,0.0044619,0.019993,1.7555,12.394,48.278,84.683,
22.14,5.6466,-7.8748,0.71252,0.017395,0.064226,1.8763,13.098,38.993,84.903,
22.239,4.4577,-8.7301,0.91609,0.026015,0.098029,1.9811,13.469,29.59,85.213,
22.338,2.8595,-9.3674,0.60055,0.068519,0.075986,2.0325,13.938,20.155,85.377,
