Time,Acceleration X,Acceleration Y,Acceleration Z,Angular Velocity X,Angular Velocity Y,Angular Velocity Z,Yaw,Pitch,Roll,11/16/2018 17:27
0,7.1912,6.7566,0.4787,0.01823,0.014784,0.0044967,157.5,43.176,86.172,
0.099,7.1804,6.7713,0.49023,0.019291,0.013717,0.0044997,157.5,43.18,86.171,
0.197,7.2021,6.7644,0.49292,0.011831,0.015856,0.0055162,157.49,43.179,86.18,
0.296,7.1852,6.7757,0.49816,0.019315,0.017959,0.0055894,157.49,43.181,86.177,
0.395,7.1785,6.7827,0.49278,0.017182,0.017979,0.0045055,157.49,43.181,86.175,
0.494,7.1909,6.7559,0.49263,0.022492,0.013693,0.0055924,157.49,43.18,86.17,
0.593,7.1967,6.7646,0.48439,0.015051,0.019024,0.0066265,157.49,43.177,86.165,
0.692,7.1988,6.7566,0.47781,0.013985,0.019041,0.0055514,157.48,43.18,86.171,
0.79,7.1878,6.755,0.47736,0.011843,0.017984,0.0055279,157.48,43.18,86.169,
0.889,7.1954,6.7736,0.49816,0.012916,0.019031,0.0066089,157.48,43.174,86.166,
0.988,7.2011,6.7635,0.50146,0.015034,0.015858,0.0044762,157.48,43.17,86.169,
1.087,7.1934,6.736,0.46987,0.019295,0.014754,0.0066382,157.47,43.168,86.174,
1.186,7.2125,6.7611,0.48589,0.017148,0.012647,0.0055426,157.47,43.163,86.172,
1.284,7.1901,6.7442,0.48499,0.016108,0.016919,0.0044909,157.47,43.159,86.169,
1.383,7.2142,6.743,0.49547,0.017173,0.016889,0.0066323,157.48,43.158,86.162,
1.482,7.2068,6.7634,0.46553,0.015039,0.016909,0.0055484,157.48,43.157,86.158,
1.581,7.2177,6.7525,0.47691,0.0161,0.015842,0.0055514,157.47,43.152,86.168,
1.68,7.2119,6.7758,0.48334,0.018241,0.016899,0.0055748,157.47,43.142,86.169,
1.779,7.1903,6.7749,0.50535,0.012924,0.020108,0.0055484,157.48,43.149,86.158,
1.877,7.1719,6.7459,0.47751,0.018229,0.014771,0.0055631,157.49,43.155,86.154,
1.976,7.1822,6.7629,0.47182,0.015025,0.014768,0.006603,157.49,43.148,86.148,
2.075,7.1943,6.7602,0.47077,0.018236,0.015848,0.0045026,157.48,43.15,86.15,
2.174,7.2069,6.7707,0.49113,0.016114,0.017983,0.0044967,157.48,43.147,86.15,
2.273,7.1901,6.7676,0.47751,0.01718,0.017966,0.0055719,157.48,43.154,86.146,
2.371,7.1891,6.7575,0.49173,0.019283,0.01264,0.0055601,157.49,43.151,86.147,
2.47,7.2024,6.7629,0.4808,0.017174,0.016902,0.005566,157.48,43.146,86.154,
2.569,7.1984,6.7611,0.50325,0.015046,0.017973,0.0055543,157.48,43.146,86.15,
2.668,7.2017,6.7652,0.4805,0.018241,0.016899,0.0055748,157.48,43.147,86.146,
2.767,7.1924,6.7773,0.46718,0.012911,0.01798,0.0055367,157.48,43.147,86.149,
2.866,7.2041,6.7522,0.49173,0.013973,0.016926,0.0044733,157.48,43.147,86.152,
2.964,7.1858,6.732,0.48918,0.01825,0.017989,0.003448,157.47,43.148,86.161,
3.063,7.218,6.7787,0.48439,0.021445,0.016901,0.0045348,157.47,43.145,86.164,
3.162,7.206,6.7544,0.49128,0.015039,0.016909,0.0055484,157.47,43.154,86.171,
3.261,7.1431,6.7752,0.49891,0.013985,0.019041,0.0055514,157.49,43.161,86.168,
3.36,7.1457,6.7948,0.49577,0.018229,0.014771,0.0055631,157.49,43.153,86.158,
3.458,7.1819,6.7894,0.44937,0.012895,0.015826,0.0076577,157.48,43.16,86.156,
3.557,7.1764,6.7394,0.4799,0.017196,0.02012,0.0034509,157.49,43.178,86.144,
3.656,7.1536,6.8134,0.48005,0.021489,0.023337,0.00030467,157.46,43.15,86.17,
3.755,7.1312,6.7987,0.4564,0.022387,0.00065194,0.027915,157.47,43.139,86.168,
3.854,7.0313,6.8801,0.6263,0.013846,0.012677,0.090828,157.52,43.192,86.152,
3.953,7.0047,6.783,0.36958,0.0030405,0.015427,0.21659,157.52,43.206,86.123,
4.051,7.1113,6.8051,0.38799,-0.003563,0.011493,0.36581,157.58,43.022,85.987,
4.15,7.275,6.51,0.49502,0.020665,-0.0027558,0.56749,157.48,42.359,86.124,
4.249,7.8637,6.106,0.48813,0.020434,-0.003016,0.76264,157.27,41.04,86.221,
4.348,8.1486,5.563,0.68662,-0.0096795,-0.0041388,0.949,157.01,38.867,86.305,
4.447,8.6833,4.7459,0.52122,0.035983,0.0044142,1.1947,156.83,35.436,86.322,
4.545,9.1294,3.4891,0.56238,0.012105,-0.0184,1.413,156.42,31.008,86.371,
4.644,9.5269,2.4112,0.6266,0.030948,-0.019094,1.7256,156.03,25.436,86.486,
4.743,9.7793,0.77045,0.6034,0.02094,-0.015986,2.0828,155.66,18.684,86.489,
4.842,10.015,-0.8673,0.77479,0.027769,-0.035323,2.5306,155.16,10.68,86.433,
4.941,9.1645,-3.6615,1.0159,0.065742,-0.036888,2.9095,154.65,1.0066,86.308,
5.04,7.6483,-6.7239,0.70024,0.055881,-0.060374,3.0053,153.91,-10.553,86.042,
5.138,5.1436,-8.955,0.78961,0.053803,-0.045798,3.032,152.89,-24.427,85.487,
5.237,2.297,-9.1366,0.80458,0.042752,-0.090507,3.1234,151.56,-39.94,84.495,
5.336,-1.1775,-9.7396,0.75234,0.013174,-0.056345,3.0348,149.12,-55.971,82.278,
5.435,-4.3357,-8.8023,0.66597,0.010209,-0.04099,2.9112,142.55,-72.012,75.889,
5.534,-6.4854,-6.6673,0.75952,0.062583,-0.054475,2.7825,76.58,-85.7,9.9608,
5.632,-8.3773,-5.6927,0.22723,0.011107,-0.08671,2.8213,-8.1968,-73.751,-74.734,
5.731,-9.13,-2.8851,0.28231,0.055164,-0.032905,2.8476,-15.749,-58.283,-82.189,
5.83,-9.2541,-1.0975,0.37332,0.020511,-0.058686,3.1372,-18.581,-43.383,-84.937,
5.929,-9.8289,1.524,0.037572,0.11283,-0.059344,3.6019,-20.121,-28.322,-86.422,
6.028,-7.8055,6.0825,0.47362,0.04559,-0.012978,3.8298,-21.161,-13.133,-87.168,
6.127,-4.8414,7.9681,0.25507,0.039359,-0.12386,4.0232,-22.07,2.9667,-87.662,
6.225,-1.3048,9.1196,0.36779,0.038656,-0.041186,4.1367,-23.286,21.023,-87.815,
6.324,2.2955,8.6144,0.42152,0.18181,0.0076185,4.2853,-24.58,41.345,-87.462,
6.423,7.0394,7.7069,0.84335,0.14782,0.036364,4.2927,-26.747,62.726,-86.026,
6.522,9.5796,4.064,0.74515,0.26326,0.028581,4.1165,-44.365,84.586,-69.204,
6.621,10.745,-1.1307,-0.20837,0.10402,-0.046933,3.8941,164.38,71.97,81.613,
6.719,9.0732,-4.4043,0.82538,-0.045921,0.015145,3.7289,160.4,48.759,85.228,
6.818,8.7164,-5.9007,1.2438,-0.0010365,0.084614,4.04,159.45,26.019,85.966,
6.917,6.0557,-8.4674,0.99453,0.014271,0.038618,4.4035,159.01,4.0016,85.932,
7.016,1.8913,-7.3587,0.58019,0.25014,0.08269,4.6542,157.85,-16.834,85.452,
7.115,-2.7838,-9.0952,0.061672,0.13169,-0.062257,4.7911,155.48,-37.037,84.391,
7.213,-6.4504,-6.3133,1.4613,0.027318,-0.16525,4.9741,150.94,-58.577,81.476,
7.312,-9.6417,-1.5105,0.36913,-0.12803,-0.085859,4.9605,128.05,-81.058,59.86,
7.411,-7.5376,4.0157,0.0092807,0.043513,-0.055914,4.4694,-9.0183,-72.456,-75.956,
7.51,-5.4256,6.405,0.4552,0.052147,0.11165,4.3381,-18.452,-47.198,-84.599,
7.609,-2.3893,9.7585,0.49966,0.10035,-0.10058,4.0185,-20.808,-20.804,-87.386,
7.707,1.0806,8.8661,0.1196,0.13585,-0.26461,3.8494,-21.042,5.9755,-88.228,
7.806,2.7511,9.5831,1.3194,-0.033266,-0.054947,4.4101,-21.542,30.564,-88.254,
7.905,6.6815,6.4203,0.041164,0.023101,-0.074157,4.4872,-22.468,53.765,-87.724,
8.004,11.29,2.9549,0.46688,-0.13981,0.01344,4.5877,-26.433,76.377,-84.305,
8.103,10.297,-0.62914,0.73437,0.038233,0.017752,4.7982,171.82,82.092,76.192,
8.201,8.3377,-6.0682,0.86475,0.075332,-0.036976,4.7396,161.02,59.854,85.612,
8.3,4.7514,-8.5266,0.11331,0.063516,-0.084738,4.559,158.66,35.588,87.137,
8.399,-0.10852,-9.2145,-0.059127,-0.071477,-0.02167,4.3961,156.6,10.95,87.22,
8.498,-3.7255,-8.8759,0.98435,0.072475,-0.077646,4.2381,155.09,-14.399,86.866,
8.597,-6.4932,-6.8197,0.6471,0.077394,-0.13683,4.2911,153.54,-40.467,86.091,
8.696,-8.62,-2.9481,-0.16331,0.097897,-0.080646,4.3897,149.83,-66.363,82.628,
8.794,-9.5371,-0.89963,0.23292,0.10798,-0.077499,4.9124,51.521,-86.829,-15.285,
8.893,-6.9984,4.7668,0.23441,0.038401,-0.080178,5.0621,-16.218,-65.661,-82.702,
8.992,-5.4377,8.7605,0.36808,0.16958,-0.10676,5.0268,-20.115,-42.688,-86.824,
9.091,0.94214,8.8015,-0.055235,0.2417,0.012112,5.1198,-21.523,-19.491,-88.387,
9.19,5.5792,8.4582,0.53708,0.065088,-0.07924,5.0656,-22.299,4.4605,-89.17,
9.289,8.7637,5.023,0.62884,0.082604,-0.027946,4.9561,-22.901,30.833,-89.57,
9.387,10.873,-0.047002,0.13592,0.056182,-0.020283,4.7715,-23.319,58.11,-89.702,
9.486,10.663,-4.8318,0.73333,0.090375,-0.074101,4.4654,-29.262,85.552,-84.354,
9.585,6.2543,-7.5519,0.5052,0.087224,-0.058575,4.5017,160.06,67.236,85.777,
9.684,3.2815,-9.9636,0.27183,0.089494,-0.03122,4.5264,158.02,40.079,86.997,
9.783,-0.29159,-9.8259,0.23875,0.0020818,-0.14141,4.7714,156.91,13.187,87.125,
9.881,-5.0472,-7.6193,1.1878,0.029004,-0.25277,4.9086,155.9,-12.579,86.781,
9.98,-9.4292,-3.5591,0.02425,0.086688,-0.097867,4.7564,154.46,-37.259,85.844,
10.079,-8.5475,0.22977,-0.22139,0.14351,-0.052537,4.7763,151.61,-62.099,83.315,
10.178,-7.3397,4.2083,-0.10119,0.16159,-0.081316,4.6888,117.21,-85.402,49.099,
10.277,-4.9475,7.9313,0.11122,0.103,-0.068913,4.6468,-14.284,-67.967,-82.285,
10.376,-0.77554,9.3972,0.30656,0.22234,0.064308,4.5984,-18.529,-42.032,-86.956,
10.474,3.5086,9.5811,0.48888,0.14297,-0.021348,4.4885,-19.848,-15.927,-88.642,
10.573,7.4078,6.892,-0.011676,0.057689,-0.021985,4.3886,-20.604,9.6966,-89.325,
10.672,10.601,3.6463,0.5534,0.13669,-0.041125,4.2804,-21.614,35.405,-89.459,
10.771,10.601,-0.40521,0.20507,0.14927,-0.062399,4.3636,-22.952,60.889,-89.04,
10.87,8.3956,-3.8597,0.29189,0.037352,-0.0475,4.3052,-35.542,85.906,-77.056,
10.968,6.188,-7.4109,0.85891,0.057831,-0.024596,4.2543,162.51,68.909,84.661,
11.067,3.0245,-9.6567,0.57136,0.0042501,-0.054527,4.2792,160.18,44.649,86.614,
11.166,-1.427,-9.0942,0.66177,-0.0036371,-0.12866,4.2532,159.18,20.966,87.001,
11.265,-5.2638,-7.4368,0.12993,0.13736,-0.12814,4.1744,158.55,-2.793,86.902,
11.364,-8.3062,-5.2066,0.58723,0.061788,-0.079739,4.238,157.74,-26.269,86.311,
11.462,-9.5165,-1.3493,0.24714,0.13551,-0.089299,4.1308,155.91,-49.588,84.776,
11.561,-8.2374,2.7486,-0.061223,0.17586,-0.12551,4.1235,149.43,-72.603,78.769,
11.66,-7.372,6.5966,-0.0083826,0.10223,-0.12609,4.1026,9.2315,-83.196,-61.059,
11.759,-4.7394,9.0933,0.22199,0.15776,-0.14604,3.9793,-13.327,-60.54,-83.752,
11.858,-0.44966,9.9676,0.31345,0.23529,-0.046556,3.9165,-16.751,-37.677,-86.939,
11.956,3.4267,9.1243,0.29129,0.068827,-0.042498,3.8885,-18.323,-15.199,-88.33,
12.055,6.9212,7.8693,0.40221,0.011386,-0.010327,3.8828,-19.373,7.3222,-89.105,
12.154,8.3874,4.3808,0.10448,0.095641,-0.033316,3.8269,-20.465,29.895,-89.489,
12.253,9.7588,1.2472,0.45954,0.062657,-0.024162,3.7829,-21.843,52.017,-89.404,
12.352,10.473,-3.0257,0.62974,0.18719,-0.11613,3.615,-24.433,73.992,-87.907,
12.45,7.9989,-5.9744,0.45041,0.13389,-0.15228,3.3659,170.05,83.884,76.834,
12.549,5.3107,-8.5358,0.36255,0.028797,-0.12929,2.9919,160.57,62.388,85.603,
12.648,1.6722,-9.6054,0.42347,-0.01062,-0.2035,2.5454,158.61,41.159,86.803,
12.747,-0.95292,-9.9407,0.55505,-0.041817,-0.19031,1.9107,157.49,20.291,87.159,
12.846,-4.0762,-8.9011,0.67764,-0.066315,-0.11818,1.3265,156.72,-0.88611,87.097,
12.944,-5.23,-8.7475,0.60205,-0.031221,-0.060034,0.82695,156.16,-21.112,86.702,
13.043,-6.0756,-7.6584,0.5522,0.019614,-0.024619,0.44152,155.71,-40.579,85.753,
13.142,-6.411,-7.1979,0.47811,0.030733,0.00072944,0.19328,154.09,-58.599,83.629,
13.241,-6.2354,-7.3837,0.42721,0.023432,0.0084422,0.086619,147.26,-75.167,76.441,
13.34,-6.0045,-7.565,0.42766,0.021328,0.009748,0.067413,78.524,-86.325,7.0322,
13.439,-5.9947,-7.5769,0.44038,0.018131,0.013818,0.083405,2.2958,-79.019,-69.927,
13.537,-5.8383,-7.718,0.48499,0.0094912,0.0018426,0.1078,-5.0642,-71.944,-77.76,
13.636,-5.9575,-7.6338,0.49577,0.010562,0.00086659,0.10033,-7.5429,-66.302,-80.569,
13.735,-6.048,-7.5175,0.47137,0.014873,0.0032677,0.076922,-8.9336,-61.565,-82.184,
13.834,-6.2294,-7.3835,0.40805,0.025775,0.033506,0.03772,-10.678,-55.649,-84.215,
13.933,-6.3023,-7.3645,0.33545,0.016071,0.02156,0.059969,-11.176,-53.872,-84.832,
14.031,-6.1293,-7.4903,0.45745,0.013774,0.0019593,0.097168,-11.435,-53.012,-85.176,
14.13,-6.1875,-7.4217,0.49906,0.013849,0.012703,0.088696,-11.615,-52.563,-85.342,
14.229,-6.4076,-7.2574,0.37647,0.022423,0.015025,0.07065,-11.674,-52.003,-85.471,
14.328,-6.445,-7.2111,0.41134,0.018149,0.011991,0.058868,-11.753,-51.337,-85.594,
14.427,-6.4091,-7.1978,0.41613,0.017084,0.01001,0.047118,-11.811,-50.677,-85.722,
14.525,-6.4921,-7.1506,0.42766,0.013908,0.01128,0.031102,-11.968,-50.209,-85.9,
14.624,-6.5451,-7.137,0.4546,0.0086332,0.017916,0.0119,-12.082,-50.03,-85.928,
14.723,-6.5869,-7.1172,0.39682,0.011849,0.017037,-0.0040749,-12.046,-49.742,-85.91,
14.822,-6.5588,-7.0993,0.42826,0.018245,0.013929,-0.01257,-12.069,-49.205,-86.023,
14.921,-6.5487,-7.1508,0.39668,0.017192,0.016073,-0.013634,-12.168,-48.666,-86.141,
15.019,-6.5389,-7.0801,0.37198,0.015069,0.018208,-0.01364,-12.251,-48.278,-86.199,
15.118,-6.4902,-7.1734,0.44996,0.016104,0.012872,-0.012594,-12.287,-47.937,-86.237,
15.217,-6.476,-7.1598,0.42063,0.013974,0.01393,-0.011539,-12.32,-47.672,-86.287,
15.316,-6.4895,-7.2415,0.42332,0.015042,0.014938,-0.0072592,-12.331,-47.489,-86.313,
15.415,-6.4844,-7.1699,0.41658,0.013981,0.018003,0.0034128,-12.321,-47.38,-86.325,
15.513,-6.4453,-7.2045,0.34743,0.018236,0.016847,0.0098401,-12.305,-47.396,-86.319,
15.612,-6.4434,-7.2388,0.4338,0.013971,0.015901,0.0012685,-12.29,-47.504,-86.314,
15.711,-6.4715,-7.1904,0.41808,0.017208,0.019239,-0.011484,-12.297,-47.606,-86.324,
15.81,-6.4667,-7.2041,0.41105,0.018252,0.016005,-0.0082933,-12.269,-47.733,-86.296,
15.909,-6.4136,-7.2372,0.42931,0.013934,0.0095304,0.00016698,-12.268,-47.851,-86.311,
16.008,-6.408,-7.2559,0.42841,0.014993,0.011446,0.017249,-12.256,-47.95,-86.325,
16.106,-6.4047,-7.2867,0.42796,0.019329,0.022098,0.01521,-12.245,-48.033,-86.335,
16.205,-6.4469,-7.1875,0.35147,0.012876,0.017641,0.033261,-12.252,-48.099,-86.345,
16.304,-6.3285,-7.3039,0.4588,0.016083,0.021677,0.050372,-12.246,-48.104,-86.355,
16.403,-6.4549,-7.2397,0.46493,0.019178,0.01061,0.084463,-12.24,-48.05,-86.364,
16.502,-6.4308,-7.2819,0.35147,0.0062944,0.0069117,0.12913,-12.237,-48.068,-86.375,
16.6,-6.3818,-7.2297,0.39233,0.0084539,0.014157,0.14518,-12.236,-48.158,-86.359,
16.699,-6.6104,-7.0933,0.30956,0.012668,0.010599,0.17399,-12.207,-48.242,-86.337,
16.798,-6.6683,-7.0417,0.39233,0.019005,0.0059045,0.20814,-12.195,-48.29,-86.352,
16.897,-6.7481,-6.9039,0.37856,0.015699,-0.0031055,0.24965,-12.255,-48.235,-86.414,
16.996,-6.8935,-6.8107,0.41359,0.0060997,0.00099869,0.26453,-12.222,-48.227,-86.36,
17.094,-7.1282,-6.6088,0.36779,0.019054,0.024416,0.26049,-12.271,-48.063,-86.414,
17.193,-7.3496,-6.3344,0.25043,0.02522,-0.0049836,0.31371,-12.306,-47.92,-86.43,
17.292,-7.3668,-6.349,0.47167,0.018828,0.0021715,0.33929,-12.333,-47.624,-86.473,
17.391,-7.5756,-6.0363,0.34818,0.020955,0.003085,0.35104,-12.393,-46.992,-86.618,
17.49,-7.8435,-5.7445,0.27468,0.017778,0.012358,0.37666,-12.416,-46.271,-86.645,
17.588,-7.9896,-5.4321,0.29339,0.030434,-0.00019627,0.44281,-12.481,-45.402,-86.721,
17.687,-8.0883,-5.2708,0.37856,0.021808,-0.0060233,0.48643,-12.561,-44.407,-86.785,
17.786,-8.3182,-4.9761,0.34294,-0.0081698,-0.015828,0.51279,-12.66,-43.17,-86.95,
17.885,-8.5206,-4.4037,0.28097,-0.027164,0.018424,0.50109,-12.755,-41.739,-87.171,
17.984,-8.9803,-3.9281,0.20343,-0.017682,-0.010863,0.45729,-12.864,-40.312,-87.278,
18.082,-9.1116,-3.463,-0.16376,-0.027312,-0.013064,0.46573,-12.896,-38.841,-87.308,
18.181,-9.2448,-3.1105,0.29788,0.020804,-0.0064052,0.43097,-13.02,-37.07,-87.501,
18.28,-9.4855,-2.4133,0.19564,0.01979,0.0011372,0.42354,-13.156,-35.213,-87.657,
18.379,-9.4931,-2.2166,0.16107,0.0026168,-0.0077495,0.45854,-13.271,-33.268,-87.802,
