Time,Acceleration X,Acceleration Y,Acceleration Z,Angular Velocity X,Angular Velocity Y,Angular Velocity Z,Yaw,Pitch,Roll
0,0.48724,9.9148,-0.069156,0.018254,0.015019,-0.014697,174.74,87.164,98.084
0.099,0.46763,9.9127,-0.055535,0.018218,0.010659,-0.00619,176.56,87.615,96.252
0.197,0.31659,9.8684,-0.053439,0.016086,0.013701,0.006606,-84.594,87.786,97.338
0.296,0.33979,9.8904,-0.066312,0.019307,0.017881,0.011987,-84.754,87.766,97.491
0.395,0.38216,9.8892,-0.039368,0.019345,0.024265,0.012023,-84.234,87.709,97
0.494,0.42557,9.8952,-0.047002,0.01614,0.022238,0.0045202,-84.038,87.634,96.838
0.593,0.4085,9.8798,-0.048799,0.018263,0.020117,0.0034597,-83.88,87.613,96.705
0.691,0.42137,9.8953,-0.049846,0.01823,0.013785,-0.00084076,-83.811,87.617,96.651
0.79,0.42467,9.9068,-0.058079,0.015038,0.014899,-0.0040603,-83.69,87.646,96.525
0.889,0.38874,9.8983,-0.049846,0.020338,0.0095096,0.00021971,-83.942,87.71,96.764
0.988,0.37228,9.9055,-0.049248,0.013974,0.016939,0.003407,-84.211,87.744,97.022
1.087,0.37512,9.8862,-0.055984,0.019337,0.022176,0.0088119,-84.483,87.766,97.295
1.186,0.36464,9.9007,-0.058977,0.016323,0.063079,0.058065,-84.217,87.787,97.057
1.284,0.2145,9.951,-0.011376,0.022449,0.0072704,0.0087562,-84.157,87.682,97.22
1.383,0.73692,9.8244,-0.061821,0.033213,0.021132,0.0035886,-83.921,87.419,97.053
1.482,0.48828,9.9286,-0.035327,0.011987,0.045424,0.023808,-82.148,87.428,95.315
1.581,0.29504,9.8363,0.076491,0.0055665,0.040282,0.01093,-81.015,87.471,94.333
1.68,0.37332,9.9161,0.046853,0.01291,0.01597,-0.004072,-81,87.382,94.367
1.779,0.48215,9.9136,0.019909,0.013957,0.017768,0.022607,-81.851,87.33,95.242
1.877,0.43021,9.8949,0.023801,0.019192,-0.0022685,0.0065445,-81.916,87.362,95.309
1.976,0.53394,9.8863,-0.024699,0.017015,-0.009683,0.0043532,-82.339,87.262,95.676
2.075,0.47182,9.8859,-0.01931,0.0074502,-0.0042408,-0.0031609,-82.035,87.256,95.268
2.174,0.46314,9.866,-0.012724,0.0096553,0.0074555,-0.0030789,-81.709,87.266,94.809
2.273,0.44413,9.8959,-0.054187,0.016133,0.022173,0.0098518,-82.605,87.313,95.61
2.372,0.40072,9.916,-0.096998,0.019383,0.032646,0.022733,-83.895,87.376,96.884
2.47,0.43065,9.9003,-0.083975,0.019367,0.02948,0.020583,-84.208,87.363,97.246
2.569,0.51523,9.9009,-0.058079,0.017201,0.02217,0.0098606,-83.346,87.254,96.467
2.668,0.52825,9.8666,-0.040715,0.013968,0.015875,0.0034011,-82.581,87.155,95.775
2.767,0.56448,9.8745,-0.066162,0.017145,0.01061,-0.0019335,-82.478,87.112,95.709
2.866,0.51673,9.8979,-0.056433,0.01611,0.014934,-0.0072505,-82.588,87.094,95.819
2.964,0.52152,9.8895,-0.054487,0.015037,0.013887,-0.0083314,-82.51,87.135,95.725
3.063,0.48634,9.8916,-0.035327,0.015035,0.013861,-0.0061988,-82.641,87.196,95.844
3.162,0.44532,9.872,-0.051942,0.017191,0.019069,0.0023787,-82.878,87.281,96.075
3.261,0.44083,9.9052,-0.064366,0.017199,0.022157,0.010927,-83.075,87.353,96.266
3.36,0.42122,9.9113,-0.066911,0.016137,0.023211,0.01199,-83.237,87.403,96.436
3.459,0.47152,9.8961,-0.054337,0.016142,0.023263,0.007725,-83.125,87.414,96.348
3.558,0.48305,9.9133,-0.059726,0.016127,0.021109,0.009846,-83.073,87.374,96.327
3.656,0.42048,9.8904,-0.054636,0.017223,0.026399,0.012017,-83.034,87.34,96.321
3.755,0.46987,9.8572,-0.073347,0.019372,0.025524,-0.0039665,-83.08,87.328,96.396
3.854,0.50759,9.8589,-0.035776,0.02043,0.020423,-0.022115,-83.076,87.285,96.432
3.953,0.49697,9.9033,-0.049547,0.022608,0.029848,-0.010315,-82.589,87.263,95.99
4.052,0.41179,9.9257,0.0088316,0.022643,0.037204,-0.0028094,-82.443,87.347,95.878
4.151,0.44038,9.8736,-0.16047,0.011739,-0.0050707,-0.023392,-83.541,87.499,97.068
4.249,0.5534,9.8917,-0.080083,0.010625,-0.012528,-0.022375,-84.007,87.558,97.668
4.348,0.35686,9.8787,-0.087718,0.0063594,-0.0014631,0.03097,-82.877,87.592,96.525
4.447,0.23262,9.8663,0.10448,0.01707,0.02189,0.1197,-82.93,87.749,96.475
4.546,0.19355,9.917,-0.08173,0.020112,0.0072912,0.1815,-83.047,87.909,96.441
4.645,0.39398,9.9015,-0.12753,0.025198,-0.003195,0.34144,-85.282,87.81,98.627
4.743,0.20178,9.8604,-0.078138,0.019543,-0.033326,0.45747,-83.999,87.247,97.362
4.842,0.64531,9.864,-0.035476,0.014847,-0.071535,0.62465,-81.714,86.411,95.032
4.941,1.0114,9.747,-0.09146,0.012269,-0.10491,0.83133,-79.421,84.905,92.611
5.04,1.4539,9.7567,0.040416,0.0058108,-0.069371,1.0586,-78.447,82.583,91.369
5.139,2.2655,9.6383,0.076341,0.030246,-0.050547,1.253,-78.148,79.483,90.584
5.238,3.2767,9.5364,0.01422,0.038545,-0.058942,1.4151,-78.13,75.226,89.938
5.336,4.5625,8.8304,0.10164,0.021194,-0.063559,1.6229,-78.257,69.861,89.48
5.435,5.4695,8.1839,0.119,0.00039282,-0.093628,1.9116,-78.272,63.41,89.065
5.534,6.7718,7.4761,0.25043,-0.030263,-0.14412,2.3067,-78.374,56.087,88.776
5.633,7.944,6.4224,0.19983,0.0025937,-0.11346,2.6622,-78.579,47.819,88.485
5.732,9.0677,4.555,0.50834,-0.013597,-0.12718,2.7441,-78.966,38.259,88.187
5.83,9.8467,0.81775,0.4823,0.023966,-0.073247,2.8482,-79.573,26.865,87.714
5.929,10.718,-1.4237,0.92568,0.041974,-0.075648,2.9528,-80.425,13.445,87.123
6.028,9.412,-3.9295,0.92238,0.091221,-0.063361,2.8925,-81.295,-0.90349,86.412
6.127,7.3256,-6.4987,1.036,0.11933,-0.034934,2.7361,-82.547,-15.725,85.657
6.226,4.9935,-8.5689,0.82972,0.1195,-0.033264,2.5997,-83.893,-31.189,84.605
6.325,2.3848,-9.2473,0.9625,0.11109,-0.033928,2.4823,-85.822,-46.843,82.93
6.423,-0.018711,-9.845,0.69021,0.079828,-0.072926,2.5469,-88.991,-62.007,79.947
6.522,-1.7397,-9.4771,1.1233,0.081864,-0.079903,2.5948,-97.288,-76.23,71.816
6.621,-4.4127,-8.8244,0.47451,0.10543,-0.051155,2.6741,-179.88,-86.35,-10.614
6.72,-6.3455,-7.3541,0.12634,0.040924,-0.073478,2.9496,112.14,-75.584,-78.565
6.819,-7.5154,-5.7467,0.29623,-0.014663,-0.020034,3.2918,105.05,-62.195,-85.856
6.918,-8.808,-3.5074,0.11032,0.032,-0.027157,3.5139,102.91,-48.327,-88.129
7.016,-9.7422,-0.8673,-0.16331,-0.051247,0.015267,3.7204,101.95,-33.922,-89.175
7.115,-8.8909,3.1174,0.21376,0.017931,-0.025995,3.6834,101.72,-18.223,-89.767
7.214,-6.7626,7.4801,-0.022603,0.098421,-0.13058,3.6878,101.7,-0.81508,-90.081
7.313,-4.4044,8.4785,-0.059127,0.088087,-0.063128,3.7435,101.54,18.108,-90.282
7.412,-0.72779,9.9456,-0.26839,0.15268,-0.17552,3.608,101.82,37.855,-90.618
7.511,3.0315,9.2578,0.22229,0.1367,-0.18517,3.531,102.21,57.469,-91.426
7.609,6.1043,7.7739,0.35342,0.084629,-0.16475,3.4411,103.73,77.552,-93.506
7.708,8.6095,5.5599,0.23516,0.15118,-0.12723,3.3139,-82.22,82.551,91.675
7.807,10.012,2.1976,0.7221,0.16071,-0.1431,3.3043,-80.192,62.917,88.741
7.906,9.3431,-1.0825,0.70908,0.17225,-0.16611,3.3554,-80.247,43.529,87.887
8.005,8.7752,-4.0175,0.51029,0.12976,-0.11689,3.4311,-80.738,24.713,87.16
8.104,7.4801,-6.4305,0.72824,0.16897,-0.10474,3.7322,-81.326,6.472,86.458
8.202,5.4638,-7.7268,0.82119,0.22011,-0.11485,3.7624,-81.852,-11.36,85.698
8.301,2.3795,-9.4939,0.89888,0.20604,-0.11476,3.9329,-82.697,-29.317,84.591
8.4,-1.4593,-9.4154,0.55774,0.17867,-0.060837,3.8807,-84.449,-47.417,82.701
8.499,-5.9872,-7.8711,-0.018412,0.11799,-0.020046,3.9541,-88.75,-66.023,78.347
8.598,-7.646,-5.318,-0.020657,0.035647,-0.048284,3.9351,-128.03,-84.9,39.102
8.697,-9.1065,-1.5083,0.034728,0.10388,-0.072337,3.8833,111.73,-72.485,-81.291
8.795,-8.9857,2.2482,-0.098795,0.084554,-0.10842,3.7933,105.33,-51.436,-87.609
8.894,-7.5617,5.4044,-0.088167,0.087849,-0.12153,3.6472,103.55,-30.592,-89.038
8.993,-4.7938,7.8736,-0.32467,0.095564,-0.11217,3.4884,102.84,-9.2477,-89.405
9.092,-1.4723,9.6162,0.030387,0.076699,-0.044612,3.5377,102.4,12.716,-89.677
9.191,1.2233,9.8561,0.14056,0.089004,-0.12869,3.5363,101.95,33.837,-89.926
9.29,5.0426,8.698,0.030536,0.07373,-0.1449,3.7344,101.6,54.411,-90.239
9.389,7.0854,6.7031,0.31345,0.099911,-0.19498,3.9071,101.27,74.884,-90.579
9.487,9.1666,4.5884,0.31105,0.13212,-0.14724,3.9972,-76.25,85.88,86.119
9.586,10.296,0.39967,0.71776,0.13088,-0.16791,4.0344,-78.466,66.869,87.611
9.685,9.3582,-3.023,1.1661,0.12877,-0.1396,4.1561,-79.057,47.884,87.31
9.784,7.2945,-6.2866,0.92957,0.22681,-0.14251,4.2817,-79.684,28.333,86.836
9.883,5.5214,-9.7675,1.1686,0.14823,-0.089203,4.2067,-80.534,7.5766,86.003
9.982,0.50715,-9.7856,0.99363,0.12337,-0.14325,4.1955,-81.586,-13.631,84.92
10.08,-3.8055,-8.3378,0.40326,0.043922,-0.067926,4.0598,-83.159,-35.199,83.318
10.179,-6.623,-5.917,0.25642,0.045293,-0.055939,3.8626,-86.831,-56.98,79.797
10.278,-8.8224,-2.5483,-0.034877,-0.015351,-0.029777,3.8271,-103.67,-78.85,63.023
10.377,-9.9043,0.99244,-0.21675,0.043011,-0.089417,3.8166,119.57,-76.473,-73.786
10.476,-8.8679,4.2001,0.13622,0.083051,-0.13071,4.0502,107.74,-53.897,-85.512
10.575,-6.0548,7.4186,-0.012125,0.14221,-0.21605,4.1398,105.48,-31.316,-87.792
10.673,-3.8,9.0397,-0.1666,0.15932,-0.20078,4.1923,104.76,-9.5954,-88.423
10.772,0.89978,9.7691,0.068108,0.19797,-0.14258,4.2953,104.22,11.413,-88.744
10.871,5.3722,8.7011,-0.099094,0.21579,-0.18789,4.3411,103.85,32.881,-89.076
10.97,8.0232,7.0964,0.59576,0.22143,-0.14296,4.32,103.34,54.017,-89.217
11.069,10.048,2.6992,0.43784,0.26808,-0.19321,4.3276,102.32,76.197,-88.979
11.168,9.851,-1.552,0.68333,0.17948,-0.182,4.3909,-73.286,80.591,85.622
11.266,8.0708,-5.3952,0.99318,0.18881,-0.050125,4.3938,-75.602,57.612,86.925
11.365,5.7262,-7.9973,0.57091,0.19804,-0.07084,4.606,-76.381,34.748,86.667
11.464,1.3662,-9.6715,0.85757,0.16274,-0.034401,4.8544,-77.011,11.25,85.932
11.563,-1.6081,-9.5302,1.7343,0.2311,0.0058209,5.0279,-77.843,-11.984,84.881
11.662,-6.6611,-7.1919,-0.58199,0.32611,-0.083879,5.4644,-78.906,-35.384,83.392
11.761,-7.7486,-3.6629,-0.097597,0.14134,-0.26302,5.5429,-82.226,-58.765,79.836
11.86,-8.8536,1.5211,0.024549,0.07842,-0.23927,5.6183,-106.48,-82.113,55.819
11.958,-6.126,6.0467,0.43799,0.048794,-0.16052,5.7987,118.07,-72.372,-79.275
12.057,-1.9201,9.6919,0.26959,0.061773,-0.31754,5.7585,109.46,-47.1,-87.791
12.156,3.6463,11.021,0.47796,0.15309,-0.20589,5.8281,107.36,-20.789,-89.132
12.255,8.3462,6.7713,0.36554,0.231,-0.19228,5.913,105.67,7.0296,-89.481
12.354,9.271,1.0041,0.58064,0.20479,-0.11641,5.893,104.1,36.485,-89.683
12.453,11.039,-4.0569,0.9604,0.31173,-0.07175,5.9549,103.35,66.674,-90.47
12.551,5.6039,-7.9992,0.72345,0.27513,-0.081702,6.1689,-77.759,82.482,89.218
12.65,0.1916,-10.678,0.70219,0.17868,-0.13023,6.2467,-78.123,51.541,87.58
12.749,-3.7258,-8.0074,0.76805,0.040824,-0.22445,5.8953,-79.522,20.478,86.515
12.848,-7.4232,-2.8306,0.40715,0.18374,-0.23106,5.9636,-81.148,-10.857,85.237
12.947,-8.0893,3.5786,0.62181,0.25588,-0.30267,5.9713,-83.63,-42.674,82.821
13.046,-4.6204,8.0124,-0.034129,0.17669,-0.31246,6.0964,-94.408,-73.925,72.526
13.145,0.1672,9.7491,-0.47481,0.22421,-0.20505,6.1753,112.91,-73.161,-79.615
13.243,5.2614,9.1434,0.60384,0.25731,-0.21303,6.1232,103.84,-40.594,-88.068
13.342,10.218,4.7887,0.64755,0.25102,-0.20585,6.0603,102.28,-7.1262,-89.482
13.441,10.805,-1.6135,1.1556,0.37153,-0.21735,6.0996,101.83,26.049,-90.072
13.54,8.8182,-7.3117,0.65085,0.32516,-0.098202,6.2001,101.24,58.014,-90.799
13.639,2.7555,-8.8203,0.73258,0.17869,-0.11206,6.3268,-91.075,89.771,100.1
13.738,-2.8269,-8.8888,1.0338,0.076069,-0.11521,6.4369,-80.295,57.017,87.614
13.837,-7.8808,-6.1543,0.41628,0.13866,-0.21429,6.2566,-81.185,23.809,86.916
13.935,-8.9529,0.60669,0.66507,0.1847,-0.16199,6.4055,-82.045,-9.4039,85.651
14.034,-7.1539,6.1321,-0.098495,0.21698,-0.29618,6.4072,-84.095,-42.207,83.32
14.133,-2.5074,9.7775,-0.25926,0.16454,-0.32345,6.3885,-94.382,-74.64,73.021
14.232,4.4541,10.292,0.47002,0.33452,-0.24533,6.5695,111.19,-71.54,-81.166
14.331,8.194,4.834,0.076341,0.34731,-0.27059,6.4564,103.67,-37.978,-88.351
14.43,11.487,-0.078587,1.3406,0.38211,-0.18226,6.359,102.33,-3.9953,-89.401
14.529,7.9756,-6.4116,0.6504,0.38475,-0.11223,6.288,101.93,30.223,-90.058
14.627,2.316,-9.9359,1.0285,0.025357,-0.052851,6.3099,101.98,64.615,-90.976
14.726,-3.5181,-8.1501,0.0016466,0.034911,-0.099461,6.1167,-78.126,81.011,87.963
14.825,-7.6356,-4.6154,-0.017214,0.10261,-0.074165,5.8582,-79.14,46.346,87.302
14.924,-8.8423,0.71342,-0.26989,0.29671,-0.37831,5.3602,-80.344,11.565,86.188
15.023,-6.2546,7.2057,-0.17603,0.1429,-0.22916,5.2979,-81.722,-23.495,84.487
15.122,-1.0037,10.114,0.051493,0.14983,-0.17002,5.1585,-85.649,-58.347,80.209
15.22,3.0421,9.6682,0.85936,0.14357,-0.17855,4.9878,144.5,-84.644,-49.749
15.319,7.9607,7.1502,0.4796,0.16435,-0.13472,4.792,106.74,-51.402,-86.868
15.418,10.345,2.566,0.94543,0.22092,-0.16793,4.6217,104.53,-17.253,-88.66
15.517,10.528,-2.6273,1.3578,0.27133,-0.1687,4.4109,103.85,16.067,-89.344
15.616,8.022,-6.596,1.0379,0.26004,-0.11921,4.2821,103.02,47.813,-89.646
15.715,3.8771,-8.6891,0.83796,0.22548,-0.025499,4.1981,100.1,78.135,-88.161
15.813,0.29429,-9.4672,1.1644,0.21985,-0.062386,4.2575,-75.459,72.881,85.998
15.912,-3.7639,-9.1544,0.48305,0.19938,-0.057183,4.4461,-77.611,44.213,86.523
16.011,-6.7373,-5.9624,0.13053,0.1104,-0.093741,4.587,-78.721,16.862,85.931
16.11,-8.3041,-2.6037,0.61163,0.19732,-0.18706,4.6256,-80.032,-9.7951,84.93
16.209,-8.526,0.65639,0.43455,0.050969,-0.14466,4.9371,-81.911,-35.824,83.144
16.308,-7.8907,4.8025,0.099693,0.21948,-0.34128,4.963,-85.88,-60.518,79.154
16.406,-5.1649,7.8238,0.31165,0.13535,-0.25193,5.2476,-119.82,-83.962,44.924
16.505,-0.65174,9.3075,0.3368,0.18973,-0.22862,5.4156,114.23,-70.798,-80.859
16.604,3.7656,7.562,-0.47242,0.34098,-0.22925,5.6887,107.48,-48.272,-86.991
16.703,7.9477,6.3672,0.57136,0.36595,-0.32487,5.7577,105.32,-25.278,-88.614
16.802,9.3984,1.0257,0.66043,0.35536,-0.30193,5.7983,104.32,-1.5609,-89.289
16.901,10.373,-3.7605,0.88601,0.21207,-0.14634,5.9025,103.55,23.054,-89.81
16.999,5.4479,-7.7949,0.30761,0.18203,-0.12278,6.1583,102.54,48.274,-90.213
17.098,0.69261,-10.319,0.58304,0.0070521,-0.080389,6.3042,102.13,74.424,-91.014
17.197,-3.6259,-7.7346,0.31195,0.047314,-0.12551,6.3289,-78.498,78.379,88.273
17.296,-7.5213,-3.3406,-0.61103,0.18856,-0.2381,6.3635,-79.331,50.273,87.411
17.395,-9.4662,2.2925,0.046853,0.1735,-0.25429,6.3868,-80.102,19.979,86.563
17.493,-5.8078,7.7012,-0.66552,0.14958,-0.35059,6.2624,-80.848,-10.281,85.3
17.592,0.24848,10.27,-0.23366,0.21807,-0.30805,6.3335,-82.293,-41.24,82.945
17.691,5.3973,7.8501,0.72779,0.30245,-0.29069,6.3717,-90.405,-72.686,74.066
17.79,9.1198,3.516,0.22498,0.40078,-0.28077,6.3181,118.07,-74.846,-77.741
17.889,10.225,-2.2482,0.69261,0.2713,-0.16492,6.275,107.97,-42.631,-87.621
17.988,7.0566,-7.5145,1.0189,0.15082,-0.11818,6.3991,106.44,-9.1343,-88.767
18.086,1.7942,-9.3103,0.49577,-0.055984,-0.064754,6.4339,105.76,24.976,-89.342
18.185,-3.5295,-8.4305,0.29938,0.0028704,-0.094533,6.157,104.67,59.393,-89.481
18.284,-7.9769,-4.2697,0.44487,0.13401,-0.15055,6.0052,-64.514,85.924,78.128
18.383,-8.651,2.7621,-0.49607,0.15384,-0.23507,5.9516,-74.652,51.415,86.26
18.482,-5.9154,8.6531,-0.093555,0.073462,-0.30909,5.8471,-76.547,16.952,85.608
18.581,0.28351,9.3156,-0.57765,0.054719,-0.26736,5.6595,-78.507,-17.563,84.056
18.679,5.4672,7.8149,-0.31165,0.15578,-0.16242,5.5788,-82.233,-51.831,80.294
18.778,10.093,4.7532,0.6983,0.14514,-0.026465,5.3406,-131.64,-84.875,30.619
18.877,10.771,-1.1414,1.0354,0.28908,-0.070547,5.2541,112.48,-58.378,-85.145
18.976,9.3853,-6.0616,1.5243,0.2246,0.011958,5.1367,109.06,-24.2,-88.357
19.075,4.0905,-7.8578,-0.058977,0.17179,-0.11501,4.918,108.36,10.937,-89.14
19.174,-0.8637,-10.446,1.109,0.045476,-0.06261,4.5813,107.97,44.674,-89.815
19.272,-5.7241,-7.4861,0.58229,0.041525,-0.061475,4.3158,106.78,77.457,-89.887
19.371,-8.4496,-4.106,0.31689,0.1159,-0.16023,4.1068,-71.756,70.618,87.009
19.47,-9.0301,1.5193,-0.25866,0.057118,-0.21983,3.8618,-73.657,39.083,86.739
19.569,-8.1121,5.7003,-0.24369,0.044712,-0.19782,3.6315,-75.43,8.2607,85.861
19.668,-4.6469,8.3854,-0.19939,-0.017436,-0.32312,3.192,-77.457,-22.011,84.484
19.767,-1.5648,10.125,0.35222,-0.094695,-0.27133,2.893,-80.778,-51.368,81.521
19.865,1.951,9.3484,0.16017,-0.17093,-0.21597,2.6496,-97.463,-80.05,65.115
19.964,6.289,8.435,0.24414,-0.28145,-0.18779,2.3748,114.63,-70.247,-82.234
20.063,7.2933,6.5255,0.65998,-0.34781,-0.090723,2.1113,108.71,-43.023,-87.743
20.162,9.0066,4.4411,0.72839,-0.33302,0.024293,1.9255,107.48,-16.697,-88.857
20.261,9.8302,2.1551,0.77778,-0.38024,0.12254,1.7347,106.87,8.0424,-89.316
20.36,9.795,0.059576,1.0258,-0.47423,0.24488,1.5,106.22,31.742,-89.612
20.458,9.8789,-1.7062,1.0544,-0.52222,0.38405,1.2689,105.39,56.004,-89.997
20.557,9.2294,-3.4183,1.0046,-0.56572,0.54747,0.96875,104.82,77.081,-90.683
20.656,8.376,-5.0045,0.91205,-0.60182,0.69603,0.66321,-75.91,83.143,88.532
20.755,7.5949,-6.1961,1.14,-0.65101,0.80798,0.39681,-77.727,65.737,88.444
20.854,6.6094,-7.171,1.0764,-0.70672,0.90569,0.16441,-79.149,48.261,87.92
20.953,6.0923,-7.5199,1.0162,-0.76693,0.96711,-0.056504,-80.894,32.337,87.515
21.051,5.7924,-7.7185,1.1333,-0.84645,1.0197,-0.24776,-83.152,19.396,87.3
21.15,5.6114,-7.7883,0.96953,-0.934,0.99168,-0.36914,-85.654,7.9332,87.221
21.249,5.6584,-7.7968,0.95756,-0.99697,0.96992,-0.48815,-88.053,-2.4634,87.284
21.348,5.9169,-7.6973,0.30267,-1.0496,0.89976,-0.56682,-90.589,-11.89,87.411
21.447,6.3487,-7.3765,0.70713,-1.096,0.80465,-0.60824,-93.538,-20.212,87.576
21.546,6.8165,-7.04,0.80233,-1.1287,0.69966,-0.62828,-96.918,-27.377,87.908
21.644,7.2053,-6.3537,0.76536,-1.125,0.59747,-0.62561,-100.62,-33.153,88.511
21.743,7.732,-5.7627,0.77254,-1.0959,0.481,-0.59294,-104.67,-37.372,89.436
21.842,8.1196,-5.1577,0.56927,-1.057,0.38783,-0.55367,-109.13,-40.181,90.618
21.941,8.5775,-4.4875,0.63318,-1.001,0.29235,-0.50468,-114.5,-42.733,91.237
22.04,8.9126,-3.7693,0.84065,-0.92681,0.2181,-0.45542,-120.81,-44.682,91.161
22.138,9.1371,-3.0852,0.88346,-0.85783,0.15888,-0.41571,-127.33,-44.697,91.375
22.237,9.4853,-2.4299,0.79125,-0.77602,0.10488,-0.37161,-134.04,-43.38,91.921
22.336,9.7338,-1.7729,0.92538,-0.72819,0.074645,-0.34792,-141.21,-41.478,92.226
22.435,9.7146,-1.3978,0.80847,-0.66542,0.046452,-0.32089,-148.63,-39.035,92.391
22.534,9.7377,-0.97777,0.74844,-0.60691,0.018287,-0.29497,-156.07,-36.216,92.476
22.633,9.7558,-0.53738,0.795,-0.51737,0.0037732,-0.26232,-163.47,-33.189,92.4
22.732,9.8039,-0.15178,0.85667,-0.4075,-0.0032933,-0.23479,-170.81,-30.052,92.184
22.83,9.7617,0.30177,0.78482,-0.35101,-0.013248,-0.21838,-177.88,-26.916,91.873
22.929,9.7904,0.64621,0.8423,-0.28485,-0.011648,-0.19224,175.39,-23.874,91.508
23.028,9.6879,0.95711,0.78212,-0.21225,-0.0057737,-0.16921,169.04,-20.995,91.115
23.127,9.7422,1.1553,0.74156,-0.16851,-0.0061375,-0.15072,163.15,-18.317,90.689
23.226,9.662,1.5086,0.91639,-0.11622,-0.0014181,-0.11507,157.75,-15.857,90.273
23.325,9.6667,1.6533,0.8173,-0.06499,0.0064052,-0.071951,152.72,-12.825,89.386
23.423,9.6447,1.8455,0.78362,-0.0041583,0.01312,-0.027689,148.22,-9.9968,88.659
23.522,9.5967,2.0347,0.76581,0.025776,0.027501,0.0067612,144.11,-7.0938,88.001
23.621,9.5703,2.1876,0.72195,0.053504,0.028175,0.031521,140.35,-4.7664,87.64
