Time,Acceleration X,Acceleration Y,Acceleration Z,Angular Velocity X,Angular Velocity Y,Angular Velocity Z,Yaw,Pitch,Roll
0,9.498,-2.7513,-0.33845,0.14035,-0.0067668,0.42982,-73.237,-16.264,92.046
0.099,9.3311,-2.6954,-0.18606,0.13699,0.0076305,0.64528,-72.534,-19.005,91.821
0.198,9.2548,-3.1984,-0.23277,0.10903,0.023739,0.90108,116.54,-22.993,92.063
0.296,9.1629,-3.7867,-0.40521,0.10231,0.037671,1.2424,117.31,-28.478,92.472
0.395,8.8637,-4.4482,-0.52825,0.071006,0.050397,1.6015,118.21,-35.727,93.045
0.494,8.2154,-5.6153,-0.54487,0.011933,0.062018,1.9712,119.24,-44.895,93.867
0.593,6.9727,-7.1867,-0.70174,-0.065725,0.17898,2.3455,120.36,-55.861,95.162
0.692,5.5805,-8.3326,-0.56837,-0.083522,0.32965,2.8186,122.68,-68.883,98.263
0.791,3.5518,-9.3526,-0.46508,-0.069418,0.38891,2.9289,140.18,-83.741,117.14
0.89,-0.08173,-10.081,-0.55789,0.015515,0.48673,2.913,-80.876,-79.256,-102.24
0.988,-3.6945,-8.3889,-0.11646,0.016854,0.39181,3.1045,-73.756,-63.464,-93.073
1.087,-5.1191,-7.5028,0.36075,0.090883,0.28769,3.16,-73.092,-46.986,-90.558
1.186,-7.8088,-5.6696,0.14475,0.08859,0.25811,3.1427,-73.468,-29.959,-89.102
1.285,-9.5594,-2.0139,0.49038,0.1129,0.17754,2.9388,-74.279,-12.928,-88.017
1.384,-9.5837,0.85203,0.55789,0.19511,0.14148,2.7345,-75.474,2.9497,-87.085
1.483,-8.9101,3.7433,0.99034,-0.029915,0.15012,2.6079,-77.201,17.705,-86.145
1.581,-8.3369,4.6881,1.1857,-0.041869,0.12204,2.645,-78.736,31.631,-85.148
1.68,-6.6221,8.2227,0.26181,-0.10106,0.24312,2.7646,-79.938,45.896,-83.776
1.779,-4.7028,8.5001,0.69486,-0.082425,0.38601,3.0823,-82.257,60.345,-80.84
1.878,-3.0117,9.1008,0.88481,-0.034208,0.51182,3.5707,-91.012,75.73,-71.104
1.977,0.12289,10.018,0.44907,0.067622,0.29449,3.9138,151.37,83.794,48.385
2.076,4.3648,8.6396,-0.23411,0.15046,0.48486,4.3346,119.55,64.656,81.995
2.175,6.2706,7.8479,1.3969,0.13905,0.3885,4.4737,116.54,42.915,86.408
2.273,11.245,2.1929,-1.1182,0.038827,0.22429,4.441,116.62,19.304,88.704
2.372,11.426,-1.6397,-0.34758,-0.010607,0.1661,4.4264,116.89,-4.6269,90.093
2.471,7.4219,-5.5156,-0.48903,-0.097642,0.22627,4.3141,117.42,-28.765,91.393
2.57,4.9995,-9.159,-0.57915,-0.082324,0.24391,4.0861,118.22,-52.681,92.99
2.669,1.1415,-9.4627,-0.15897,-0.083516,0.33727,3.7613,120.73,-75.919,96.398
2.768,-3.3954,-8.1595,-0.37302,-0.030066,0.30484,3.528,-74.213,-81.998,-97.536
2.867,-6.3408,-7.3892,0.29204,-0.088759,0.1365,3.5618,-68.292,-61.156,-90.2
2.965,-7.884,-5.3175,0.68782,-0.11416,0.17672,3.5853,-67.783,-41.742,-88.498
3.064,-9.0503,-2.0398,0.27094,-0.17823,0.25476,4.0064,-67.629,-22.091,-87.909
3.163,-9.6453,0.39712,0.019609,-0.12729,0.29982,4.4848,-67.653,-2.7441,-86.928
3.262,-8.8794,4.4769,0.73886,-0.091386,0.25484,4.5862,-67.976,18.421,-85.615
3.361,-4.959,7.9566,0.57825,-0.089126,0.2911,4.6653,-69.681,42.112,-83.326
3.46,-1.0766,9.3325,0.6477,-0.096133,0.21713,4.7992,-75.771,66.57,-76.838
3.558,3.7991,9.5653,0.7215,-0.092687,0.26657,4.8454,-177.86,84.716,25.422
3.657,8.0312,6.4308,0.4558,-0.075442,0.27015,4.7219,125.68,61.65,82.003
3.756,10.781,1.9144,-0.1672,-0.042209,0.26144,4.5557,121.09,35.574,86.871
3.855,9.0563,-2.4296,0.37048,-0.061376,0.24593,4.4371,119.61,9.8284,88.816
3.954,7.5642,-6.203,-0.25492,-0.10243,0.28077,4.1224,119.06,-15.339,90.18
4.053,3.6807,-9.2544,-0.65818,-0.068956,0.1768,4.1754,119.05,-39.712,91.51
4.151,0.49233,-8.3715,0.93226,-0.13133,0.26607,4.1135,120.04,-63.042,93.551
4.25,-3.715,-9.0634,-0.52092,-0.12007,0.25026,4.4462,131.07,-84.937,105.58
4.349,-5.5852,-8.4685,0.31569,-0.020654,0.32548,4.7077,-67.921,-71.992,-92.7
4.448,-8.0416,-4.3979,-0.24459,-0.16309,0.28129,4.878,-65.733,-49.709,-89.448
4.547,-10.008,0.029788,0.8661,-0.12147,0.30709,5.0192,-65.539,-25.487,-87.921
4.646,-8.0774,4.8026,0.81221,-0.17156,0.36103,5.2324,-66.189,0.018302,-86.506
4.744,-4.6041,7.8628,1.0498,-0.15556,0.35595,5.209,-67.371,26.286,-84.744
4.843,0.82344,9.7886,0.73108,-0.086239,0.32705,5.1177,-70.761,53.622,-80.893
4.942,6.088,8.7186,0.53559,-0.085204,0.28368,4.9234,-96.957,81.159,-54.117
5.041,8.9152,4.8147,0.44083,-0.11614,0.2719,4.8506,131.02,68.4,78.493
5.14,10.321,0.29549,-0.30477,-0.22639,0.37186,4.7094,123.66,40.382,86.477
5.239,10.095,-4.6616,-0.23007,-0.056429,0.2441,4.7592,121.86,13.322,88.844
5.338,6.2829,-7.5669,0.42766,-0.10992,0.24213,4.8473,120.95,-12.939,90.333
5.436,2.2399,-8.3477,-0.58483,-0.17924,0.31697,5.183,120.11,-38.85,91.616
5.535,-0.84335,-9.8295,-0.48559,-0.32335,0.21373,5.5705,121.09,-64.361,93.861
5.634,-5.4246,-7.3603,0.46808,-0.3125,0.24349,5.5697,-141.26,-88.597,-167.54
5.733,-9.4686,-2.4621,0.40161,-0.068642,0.31261,5.5113,-65.363,-62.59,-90.603
5.832,-8.1336,3.0134,-0.25821,-0.093989,0.3644,5.5455,-64.308,-33.82,-88.033
5.931,-5.5611,6.965,0.68363,-0.17326,0.30779,5.4965,-64.003,-2.9295,-86.741
6.029,-0.57031,9.6097,1.0312,-0.17753,0.30678,5.4933,-64.941,27.443,-84.895
6.128,4.5335,8.6495,0.87358,-0.14442,0.3119,5.5011,-69.279,57.141,-80.352
6.227,8.3022,5.6874,0.14969,-0.13667,0.35369,5.4758,-124.64,84.452,-24.931
6.326,10.314,0.94364,-0.1928,-0.13769,0.34812,5.4096,128.73,61.531,81.785
6.425,10.527,-4.357,-0.2386,-0.16429,0.36605,5.4287,123.52,32.111,87.349
6.524,6.0542,-7.9497,0.069007,-0.1454,0.31775,5.4584,121.82,2.7891,89.493
6.622,1.7111,-10.732,-0.00029938,-0.13939,0.24979,5.4453,121.03,-26.342,90.959
6.721,-4.2164,-9.4022,-0.47601,-0.15619,0.28267,5.3718,121.23,-55.582,92.883
6.82,-7.0731,-4.9099,0.2877,-0.22442,0.29773,5.3756,132.6,-84.631,105.67
6.919,-9.4237,-0.30492,0.62151,-0.1605,0.28028,5.3941,-65.349,-65.808,-90.945
7.018,-7.6455,4.3494,1.1263,-0.17745,0.29261,5.3471,-64.219,-36.57,-88.344
7.117,-4.992,8.7147,0.90113,-0.15115,0.22167,5.3118,-64.475,-7.475,-86.932
7.216,0.50984,9.3038,0.56343,-0.14522,0.29649,5.196,-65.27,21.5,-85.358
7.314,6.2538,8.7791,0.56657,-0.18364,0.27066,5.0558,-67.873,51.101,-82.17
7.413,9.5305,4.909,0.17259,-0.18095,0.37721,5.13,-85.619,79.509,-63.967
7.512,11.07,0.14819,-0.60639,-0.12982,0.36504,5.1549,131.18,70.013,79.487
7.611,10.136,-4.9182,-0.39398,-0.13738,0.31916,4.9935,123.79,42.225,87.186
7.71,6.2658,-9.0354,-0.15598,-0.15132,0.28348,4.8695,121.85,14.633,89.492
7.809,1.4749,-10.019,-0.60594,-0.12739,0.30781,4.6139,120.96,-13.084,91.079
7.907,-3.4876,-8.0074,-0.61507,-0.14669,0.24098,4.3415,120.76,-40.971,92.68
8.006,-8.4002,-5.5285,0.63154,-0.15717,0.22586,4.1024,123.42,-68.339,96.577
8.105,-9.2081,-1.6774,0.68078,-0.088319,0.26096,3.8248,-81.223,-83.951,-107.1
8.204,-9.1987,2.0575,0.44892,-0.039349,0.18143,3.5294,-65.894,-58.149,-90.691
8.303,-7.6159,6.1955,0.6516,-0.098936,0.17545,3.338,-65.007,-33.979,-88.483
8.402,-5.4401,8.1672,0.90681,-0.08827,0.11125,3.0168,-64.988,-10.671,-87.16
8.501,-2.3512,9.8563,1.0174,-0.073103,0.089357,2.715,-65.347,11.312,-85.921
8.599,0.83197,9.9019,0.76326,-0.075112,0.055558,2.4343,-66.771,32.286,-84.191
8.698,3.6192,9.2945,0.71297,-0.070268,0.096214,2.1541,-69.7,52.26,-81.142
8.797,5.7463,8.1561,0.5305,-0.066821,0.079577,1.8608,-76.842,70.268,-73.994
8.896,7.4171,6.7725,0.65668,-0.055752,0.099437,1.6264,-127.82,84.574,-23.181
8.995,8.5278,5.3222,0.39967,0.0085179,0.087427,1.3741,138.19,76.463,70.547
9.094,9.2407,3.8844,0.34907,0.014067,0.067461,1.0914,127.27,63.635,81.19
9.192,9.8239,2.4497,0.16451,0.021692,0.047913,0.86103,123.69,52.072,84.601
9.291,9.917,1.3089,0.05269,0.016594,0.053275,0.68506,121.85,41.837,86.302
9.39,9.8705,0.47182,0.16121,0.0071042,0.046439,0.55058,120.77,31.832,87.407
9.489,9.8552,-0.074994,0.070204,-0.008838,0.034147,0.42881,120.31,24.078,88.074
9.588,9.7964,-0.64411,0.0079335,-0.0097653,0.039529,0.33712,120.09,17.717,88.542
9.687,9.8046,-1.1412,-0.032033,0.0073618,0.031941,0.25724,119.98,12.636,88.846
9.786,9.6902,-1.3896,-0.037422,-0.0011425,0.021296,0.17287,119.86,7.9335,89.122
9.884,9.6705,-1.6054,-0.039668,-1.1452e-05,0.022918,0.12703,119.77,3.5577,89.374
9.983,9.6527,-1.6988,-0.037722,0.010723,0.027478,0.099415,119.67,-0.034846,89.609
10.082,9.6358,-1.741,-0.035177,0.022441,0.018204,0.071734,119.52,-3.2582,89.803
10.181,9.6171,-1.8112,-0.02889,0.011804,0.014596,0.021505,119.45,-6.7671,89.995
10.28,9.6168,-1.931,-0.050445,0.011861,0.016156,-0.019009,119.4,-8.6072,90.138
10.379,9.5832,-2.0603,-0.063618,0.017186,0.011015,-0.03499,119.33,-9.7112,90.209
10.477,9.6058,-1.9808,-0.015717,0.019315,0.0099437,-0.034978,119.27,-10.448,90.219
10.576,9.6185,-1.8683,-0.054038,0.022519,0.012955,-0.021072,119.27,-10.995,90.253
10.675,9.6337,-1.8105,-0.04341,0.018262,0.019105,-0.00081147,119.3,-11.422,90.286
10.774,9.6127,-1.7314,-0.024848,0.015036,0.017882,0.013019,119.28,-11.586,90.29
10.873,9.65,-1.7159,-0.04311,0.011827,0.018826,0.023661,119.25,-11.488,90.27
10.972,9.6476,-1.7406,-0.054187,0.012922,0.025101,0.032236,119.26,-11.241,90.239
11.07,9.6423,-1.7552,-0.027842,0.016068,0.01453,0.025806,119.27,-10.974,90.201
11.169,9.6281,-1.7585,-0.031435,0.01286,0.013476,0.025774,119.3,-10.733,90.187
11.268,9.5638,-1.8181,-0.024699,0.010752,0.016753,0.019376,119.32,-10.622,90.189
11.367,9.6132,-1.8475,-0.066013,0.015037,0.018894,0.01729,119.31,-10.605,90.201
11.466,9.6052,-1.8775,-0.042961,0.016089,0.015737,0.014082,119.3,-10.659,90.204
11.565,9.6193,-1.8784,-0.047152,0.017152,0.013684,0.0076811,119.27,-10.766,90.22
11.663,9.6093,-1.8855,-0.036225,0.015041,0.015924,-0.00085541,119.27,-10.904,90.223
11.762,9.6091,-1.9132,-0.075593,0.015028,0.013796,-0.00086713,119.27,-11.049,90.239
11.861,9.595,-1.9021,-0.050295,0.016087,0.011704,-0.004069,119.24,-11.143,90.223
11.96,9.6185,-1.8876,-0.041314,0.010764,0.012863,-0.010505,119.23,-11.218,90.224
12.059,9.6123,-1.9,-0.043859,0.02359,0.018996,0.0066968,119.23,-11.283,90.235
12.158,9.6042,-1.9085,-0.049248,0.032109,0.016776,0.012087,119.25,-11.332,90.245
12.256,9.6425,-1.7811,-0.010927,0.019285,0.0096566,-0.011519,119.24,-11.341,90.24
12.355,9.6147,-1.8512,-0.061971,0.0011646,0.010962,-0.026591,119.23,-11.313,90.227
12.454,9.6102,-1.9274,-0.0723,0.0065152,0.015083,-0.016927,119.24,-11.271,90.226
12.553,9.6193,-1.8772,-0.051343,0.020351,0.010639,-0.0051061,119.23,-11.224,90.213
12.652,9.6124,-1.7946,-0.010179,0.031063,0.016988,-0.004983,119.2,-11.113,90.18
12.751,9.6516,-1.7407,-0.029938,0.025718,0.012919,-0.018913,119.25,-11.087,90.182
12.85,9.6407,-1.7835,-0.015867,-0.0030877,0.0061391,-0.06611,119.35,-11.145,90.23
12.948,9.6254,-1.7855,-0.085622,0.0054872,0.012469,-0.063871,119.37,-11.095,90.22
13.047,9.6494,-1.9323,-0.10254,0.042779,0.0086862,-0.025194,119.3,-10.935,90.177
13.146,9.6425,-1.6343,0.014071,0.029976,0.011789,-0.014618,119.24,-10.771,90.13
13.245,9.6745,-1.5774,0.0041913,0.0012075,0.010381,-0.066051,119.25,-10.682,90.115
13.344,9.6925,-1.5979,-0.026196,-0.016896,0.008847,-0.10993,119.31,-10.637,90.117
